Packet number,Gyroscope X (deg/s),Gyroscope Y (deg/s),Gyroscope Z (deg/s),Accelerometer X (g),Accelerometer Y (g),Accelerometer Z (g)
0,3.328244,3.778626,-5.068702,-0.234376,-0.951420,-0.017822
1,3.145038,4.061069,-3.229008,-0.231690,-0.948002,-0.022705
2,2.702290,4.595420,-1.251908,-0.222901,-0.948978,-0.009033
3,2.366412,4.618320,0.534351,-0.206788,-0.955082,-0.015869
4,2.610687,5.083969,1.793893,-0.204102,-0.966801,-0.004395
5,2.595420,5.015267,2.465649,-0.207764,-0.969974,-0.001709
6,2.908397,5.000000,2.183206,-0.219239,-0.970951,-0.023926
7,0.732824,5.977099,2.679389,-0.235108,-0.991215,-0.020752
8,-0.687023,6.015267,4.511450,-0.230714,-0.990726,-0.012940
9,-1.595420,6.190840,6.145038,-0.233888,-0.976810,-0.006592
10,-2.099237,6.625954,6.763358,-0.230470,-0.980472,-0.015137
11,-1.984733,7.183206,6.832061,-0.231446,-0.987308,-0.014893
12,-1.946565,7.045802,6.473282,-0.215577,-0.983646,-0.012451
13,-1.381679,6.534351,5.297710,-0.206788,-0.963871,-0.009766
14,-0.877863,6.267176,4.946565,-0.209229,-0.969730,-0.010498
15,-0.198473,6.190840,5.427480,-0.208985,-0.966801,-0.022461
16,-0.076336,5.450382,5.671756,-0.209962,-0.968021,-0.026123
17,-1.000000,4.450382,5.603053,-0.213380,-0.958744,-0.014648
18,-1.366412,4.022901,4.961832,-0.217530,-0.949711,-0.028565
19,0.335878,3.374046,10.099236,-0.206055,-0.937015,-0.019775
20,0.213740,2.778626,12.267176,-0.200928,-0.931400,-0.010498
21,-0.137405,2.923664,14.687022,-0.206055,-0.948978,-0.026856
22,0.030534,2.145038,17.641222,-0.205079,-0.946781,-0.025635
23,0.083969,1.534351,20.358777,-0.209229,-0.957035,-0.017578
24,0.748092,1.267176,20.740457,-0.215333,-0.945804,-0.025635
25,0.961832,2.145038,15.122136,-0.259278,-0.980717,-0.015381
26,0.450382,2.122137,13.671756,-0.258790,-0.971195,-0.003906
27,0.122137,2.984733,12.961832,-0.246827,-0.969242,-0.012940
28,0.000000,3.282443,14.458015,-0.247804,-0.980961,-0.016846
29,-0.442748,2.923664,14.938932,-0.250977,-0.995853,-0.019775
30,-1.267176,2.809160,13.679389,-0.242433,-0.990238,-0.007813
31,-1.717557,2.381679,4.152672,-0.229981,-0.971927,-0.003906
32,-1.282443,2.274809,4.076336,-0.231934,-0.973392,-0.008057
33,-1.946565,1.732824,4.267176,-0.230714,-0.970463,0.000977
34,-2.435115,1.374046,4.786260,-0.235108,-0.962406,0.003906
35,-2.748092,0.465649,4.366412,-0.242921,-0.956302,-0.001953
36,-2.267176,0.145038,3.671756,-0.234864,-0.951420,0.001709
37,-0.931298,-1.862595,-2.984733,-0.245851,-0.962162,0.010986
38,-0.664122,-2.160305,-4.519084,-0.246583,-0.967533,-0.010498
39,-0.320611,-1.916030,-5.839694,-0.244874,-0.970218,-0.000977
40,-0.480916,-1.633588,-6.656488,-0.253175,-0.969242,0.012207
41,-0.648855,-1.206107,-7.557252,-0.259767,-0.977543,0.007080
42,-0.213740,-0.297710,-7.687023,-0.261231,-0.968998,0.008301
43,0.404580,2.778626,-6.358778,-0.273927,-0.981449,-0.008789
44,0.068702,4.129771,-5.450382,-0.257081,-0.970951,-0.015137
45,-0.244275,4.351145,-2.106870,-0.255372,-0.957279,-0.012695
46,-0.282443,4.374046,2.320611,-0.247071,-0.965091,-0.006104
47,-0.419847,4.290076,5.251908,-0.237061,-0.970707,-0.007568
48,-0.267176,4.312977,7.045802,-0.231690,-0.973636,-0.015869
49,0.832061,2.824427,1.961832,-0.228516,-0.982914,-0.012695
50,1.328244,3.022901,0.282443,-0.227296,-0.980717,-0.016357
51,1.419847,2.877863,-0.496183,-0.228516,-0.970951,-0.009277
52,1.282443,2.656489,-0.190840,-0.234376,-0.969486,-0.005127
53,1.015267,2.595420,-0.167939,-0.245362,-0.972904,-0.019287
54,0.145038,2.244275,-0.068702,-0.253419,-0.979008,-0.014404
55,-2.984733,1.351145,-3.145038,-0.257569,-0.969974,-0.006348
56,-3.343511,1.374046,-3.236641,-0.260743,-0.977787,-0.020508
57,-3.534351,1.534351,-3.267176,-0.262696,-0.977787,-0.016113
58,-3.473282,1.694656,-3.358779,-0.263917,-0.970218,-0.010986
59,-3.404580,2.351145,-3.412214,-0.259767,-0.966801,-0.016357
60,-3.282443,2.618321,-3.282443,-0.256349,-0.967533,-0.018555
61,-4.122137,3.511450,-2.045802,-0.244386,-0.948002,-0.023438
62,-3.954198,3.763359,-2.755725,-0.241700,-0.938968,-0.030029
63,-3.389313,4.122137,-3.419847,-0.242921,-0.935795,-0.027344
64,-2.931298,3.847328,-3.122137,-0.224854,-0.937259,-0.014648
65,-2.862595,3.801527,-2.549618,-0.220948,-0.933841,-0.025147
66,-2.503817,3.374046,-1.122137,-0.217286,-0.933597,-0.028076
67,-1.099237,4.778626,2.351145,-0.254640,-0.938724,-0.035889
68,-0.259542,5.396946,1.511450,-0.253663,-0.945804,-0.030762
69,0.465649,6.053435,0.625954,-0.251466,-0.942630,-0.027100
70,0.961832,6.358778,0.519084,-0.250001,-0.942142,-0.027832
71,1.122137,6.732824,1.091603,-0.250489,-0.944095,-0.025391
72,1.068702,7.274810,2.137405,-0.243409,-0.945804,-0.024414
73,0.305343,6.885496,3.305344,-0.225098,-0.958500,-0.000732
74,-0.244275,6.442748,1.282443,-0.229737,-0.944095,-0.010742
75,-0.244275,6.152672,-0.007634,-0.229249,-0.950687,-0.005371
76,0.038168,5.847328,-0.969466,-0.227784,-0.952396,0.000977
77,0.152672,5.412214,-1.442748,-0.213136,-0.950443,0.006348
78,0.030534,4.587786,-1.038168,-0.203858,-0.951175,0.020508
79,-0.190840,2.824427,1.320611,-0.211915,-0.984867,0.016113
80,-0.564886,2.526718,1.564885,-0.223634,-0.982914,0.005127
81,-1.045802,2.259542,1.358779,-0.222901,-0.992924,0.005859
82,-1.099237,1.977099,0.664122,-0.228761,-0.989750,0.006348
83,-1.694656,2.442748,-0.908397,-0.225831,-0.978031,0.012940
84,-1.503817,2.778626,-0.519084,-0.218751,-0.986576,-0.012940
85,-2.954198,1.664122,5.885496,-0.223145,-0.974613,0.013916
86,-2.977099,1.580153,6.030534,-0.233888,-0.976078,-0.003174
87,-3.114504,0.870229,5.167939,-0.237306,-0.974857,-0.009766
88,-3.267176,1.236641,3.412214,-0.244142,-0.969242,-0.006592
89,-2.916031,1.053435,1.702290,-0.243409,-0.969974,-0.005127
90,-2.778626,1.167939,0.480916,-0.252198,-0.969242,-0.018066
91,-2.763359,2.106870,2.343511,-0.270021,-0.958988,-0.019043
92,-2.679389,2.549618,1.351145,-0.267335,-0.964847,-0.026367
93,-2.511450,2.496183,-0.030534,-0.261476,-0.963383,-0.022461
94,-2.175573,2.519084,-1.557252,-0.255128,-0.961185,-0.018066
95,-1.938931,2.496183,-2.473282,-0.264649,-0.966068,-0.017334
96,-1.595420,3.129771,-2.427481,-0.271730,-0.965336,-0.032471
97,-0.854962,4.442748,-3.328244,-0.274903,-0.965091,-0.036377
98,-0.099237,5.053435,-3.984733,-0.260011,-0.967289,-0.027832
99,0.534351,5.679389,-4.114504,-0.262452,-0.971195,-0.025635
100,0.946565,5.984733,-4.404580,-0.251466,-0.975345,-0.037598
101,0.824427,6.038168,-3.229008,-0.232667,-0.977543,-0.029297
102,0.267176,5.534351,-0.916030,-0.218507,-0.976810,-0.023193
103,-1.725191,2.923664,8.977099,-0.206300,-0.958500,-0.009766
104,-1.396947,2.374046,10.022900,-0.217774,-0.963871,-0.026611
105,-1.541985,1.290076,9.656488,-0.215577,-0.974613,-0.020752
106,-1.396947,0.587786,7.916030,-0.224854,-0.975834,-0.017578
107,-0.656489,0.114504,5.244275,-0.248292,-0.969974,-0.012695
108,-0.099237,0.244275,3.419847,-0.262940,-0.963383,-0.018066
109,-0.229008,1.656489,3.931298,-0.279786,-0.969242,-0.020752
110,-0.580153,2.198473,5.832061,-0.263185,-0.967777,-0.023438
111,-1.183206,2.458015,7.633588,-0.262696,-0.967289,-0.021484
112,-1.854962,2.961832,8.251908,-0.266358,-0.970463,-0.011719
113,-2.152672,3.282443,8.083969,-0.263917,-0.967289,-0.016602
114,-2.106870,3.351145,8.358779,-0.254151,-0.972904,-0.023926
115,-3.366412,3.366412,9.000000,-0.254884,-0.957523,-0.023926
116,-2.786260,3.748091,7.648855,-0.256104,-0.959476,-0.007080
117,-2.106870,3.877862,6.625954,-0.248536,-0.955082,-0.011475
118,-0.969466,3.847328,5.549618,-0.233155,-0.954838,-0.010742
119,-0.312977,3.519084,4.206106,-0.235108,-0.962162,-0.011231
120,-0.053435,3.305344,2.251908,-0.239747,-0.973636,-0.005127
121,0.297710,2.679389,-5.129771,-0.236085,-0.978519,-0.005127
122,-0.320611,2.183206,-4.709924,-0.235108,-0.977543,0.007324
123,-1.068702,1.625954,-2.961832,-0.231446,-0.967045,0.006104
124,-1.656489,1.251908,-1.290076,-0.235597,-0.964115,-0.006592
125,-1.755725,1.312977,-0.541985,-0.237794,-0.969242,0.001953
126,-1.824427,1.580153,-0.267176,-0.244630,-0.967533,-0.010254
127,-1.328244,1.473282,0.503817,-0.227784,-0.957767,-0.006104
128,-1.145038,1.351145,0.877863,-0.241700,-0.964115,-0.017822
129,-0.839695,1.396947,0.862595,-0.240724,-0.971927,-0.006348
130,-0.480916,1.671756,0.656489,-0.245118,-0.966068,-0.005859
131,-0.725191,1.259542,0.893130,-0.244386,-0.961918,-0.005615
132,-1.404580,1.328244,1.908397,-0.233399,-0.960697,0.005127
133,-3.038168,0.259542,3.328244,-0.238770,-0.966801,-0.002930
134,-3.061069,0.206107,2.748092,-0.243409,-0.965824,-0.007568
135,-3.145038,0.358779,1.961832,-0.239503,-0.949711,-0.009766
136,-2.480916,0.343511,3.366412,-0.239991,-0.968509,-0.011231
137,-3.083969,0.687023,3.511450,-0.265626,-0.955082,-0.019775
138,-2.320611,0.824427,3.954198,-0.265626,-0.951664,-0.022217
139,-1.625954,2.190840,1.893130,-0.259767,-0.955814,-0.016602
140,-1.267176,2.572519,2.259542,-0.251222,-0.966556,-0.020752
141,-1.694656,1.984733,3.709924,-0.238770,-0.956791,-0.027344
142,-2.404580,1.618321,4.320610,-0.240968,-0.951420,-0.019531
143,-2.801527,1.404580,4.274809,-0.232911,-0.959720,-0.005615
144,-2.366412,1.152672,4.274809,-0.239259,-0.956547,-0.015869
145,-1.519084,0.152672,1.778626,-0.237061,-0.960941,-0.011231
146,-1.503817,-0.236641,1.511450,-0.237306,-0.953617,-0.018311
147,-1.297710,-0.564886,1.938931,-0.245851,-0.953617,-0.004883
148,-1.183206,-0.625954,2.816794,-0.251710,-0.948246,-0.008545
149,-0.679389,-0.809160,2.305344,-0.254640,-0.956302,-0.021973
150,-0.427481,-0.671756,0.847328,-0.263917,-0.955814,-0.019775
151,0.992366,1.961832,-5.931298,-0.270021,-0.954593,-0.024414
152,1.053435,2.396947,-6.221374,-0.279298,-0.949711,-0.039795
153,1.274809,3.091603,-5.458015,-0.277101,-0.951664,-0.027100
154,1.061069,3.648855,-4.312977,-0.265626,-0.940677,-0.022705
155,0.389313,3.694656,-2.366412,-0.256104,-0.953373,-0.034668
156,-0.106870,4.076336,-0.625954,-0.244630,-0.950443,-0.020508
157,-1.748092,4.389313,6.664122,-0.238526,-0.949222,-0.020752
158,-1.908397,4.473282,7.297710,-0.246095,-0.950931,-0.019287
159,-1.832061,4.320610,7.465649,-0.253419,-0.953861,-0.017822
160,-1.488550,3.946565,7.022900,-0.263917,-0.952396,-0.021240
161,-1.007634,3.671756,5.427480,-0.265870,-0.951175,-0.017334
162,-0.648855,4.229008,4.641222,-0.258302,-0.955082,-0.010742
163,0.068702,3.229008,4.732824,-0.253419,-0.966068,-0.010254
164,-0.564886,2.969466,4.725191,-0.249513,-0.963138,-0.012695
165,-0.740458,3.007634,4.893130,-0.279298,-0.964115,-0.021240
166,-0.740458,3.290076,5.587786,-0.280030,-0.974369,-0.014160
167,-1.259542,3.503817,5.839694,-0.276124,-0.969242,-0.027588
168,-1.877863,3.587786,6.145038,-0.260743,-0.969486,-0.016113
169,-2.427481,4.572519,2.770992,-0.258790,-0.961429,-0.008789
170,-2.572519,4.664122,2.038168,-0.255372,-0.958988,-0.003906
171,-2.595420,4.625954,1.396947,-0.250001,-0.950443,-0.014160
172,-2.595420,4.396946,1.687023,-0.249513,-0.953861,-0.013184
173,-2.534351,3.931298,2.297710,-0.238282,-0.956547,-0.016357
174,-2.091603,3.358779,2.175573,-0.222413,-0.949955,-0.018066
175,-0.458015,1.564885,-0.664122,-0.241212,-0.948246,-0.015381
176,0.259542,1.183206,-2.000000,-0.251222,-0.953617,-0.012207
177,0.717557,1.076336,-2.969466,-0.261720,-0.952396,-0.013428
178,1.282443,1.083969,-3.908397,-0.262208,-0.956791,-0.014893
179,1.702290,1.145038,-4.954198,-0.260987,-0.962406,-0.017334
180,1.946565,1.045802,-4.595420,-0.265870,-0.966556,-0.012940
181,-0.809160,2.206107,0.595420,-0.321290,-0.955082,-0.014404
182,1.465649,3.633588,1.786260,-0.293214,-0.959232,-0.046387
183,0.183206,4.015267,1.099237,-0.277345,-0.962650,-0.039063
184,-1.083969,3.671756,1.358779,-0.270265,-0.959720,-0.039063
185,-1.419847,4.030534,2.656489,-0.265626,-0.929447,-0.040527
186,-1.068702,4.809160,4.557252,-0.265626,-0.918216,-0.018066
187,-0.099237,3.984733,11.839695,-0.236817,-0.948978,-0.011231
188,-1.045802,2.938931,16.793893,-0.241212,-0.945316,-0.012940
189,-1.076336,2.297710,19.374047,-0.248292,-0.962894,-0.017334
190,-0.832061,1.465649,17.702289,-0.261476,-0.970951,-0.016113
191,-0.786260,1.541985,12.580152,-0.269288,-0.987064,-0.004150
192,0.564886,1.923664,-0.717557,-0.276612,-0.981937,0.001709
193,0.137405,2.267176,1.305343,-0.272218,-0.972660,-0.013428
194,-0.709924,2.091603,4.618320,-0.268800,-0.970463,-0.005859
195,-1.732824,2.320611,7.229007,-0.255128,-0.966312,-0.010986
196,-2.847328,2.824427,9.374045,-0.259522,-0.963871,-0.003418
197,-2.961832,3.167939,13.122137,-0.271974,-0.955814,-0.001953
198,-3.740458,3.740458,20.549618,-0.273683,-0.978519,-0.023682
199,-4.229008,3.709924,19.969465,-0.264894,-0.973881,-0.024658
200,-4.198473,3.770992,17.541985,-0.260743,-0.968021,-0.030518
201,-3.343511,3.633588,13.847328,-0.263673,-0.972904,-0.024902
202,-2.702290,3.366412,8.778625,-0.266114,-0.969974,-0.021240
203,-1.496183,3.221374,5.129771,-0.264405,-0.968021,-0.019775
204,-0.885496,1.778626,-0.374046,-0.254151,-0.962650,-0.010742
205,-0.946565,1.221374,-0.099237,-0.271974,-0.972904,-0.005859
206,-1.137404,0.083969,-3.022901,-0.281251,-0.961429,-0.009766
207,-0.587786,0.160305,-6.396946,-0.281251,-0.978031,-0.014893
208,-0.221374,-0.190840,-8.778625,-0.284181,-0.973392,-0.013184
209,0.717557,0.496183,-11.351144,-0.271730,-0.957035,-0.011963
210,0.343511,0.847328,-9.969465,-0.261720,-0.957279,-0.021240
211,0.175573,1.083969,-8.511450,-0.251954,-0.963383,-0.008545
212,-0.801527,1.091603,-7.419847,-0.237306,-0.960941,-0.002686
213,-1.526717,1.183206,-6.076336,-0.235108,-0.966556,-0.005371
214,-2.381679,0.908397,-2.732824,-0.226563,-0.961918,-0.011719
215,-5.541984,-0.809160,12.167939,-0.240479,-0.958256,-0.010986
216,-5.381679,-1.038168,12.335877,-0.243165,-0.964115,-0.006592
217,-4.938932,-1.312977,11.885496,-0.239503,-0.957767,-0.013916
218,-4.625954,-1.877863,13.221375,-0.221925,-0.947025,-0.008057
219,-4.717557,-2.763359,18.526717,-0.219972,-0.920169,0.002197
220,-3.458015,-4.862596,26.465647,-0.242433,-0.970218,-0.005371
221,-2.809160,-5.053435,22.999999,-0.253175,-0.972416,-0.011475
222,-2.236641,-5.595420,18.870230,-0.249757,-0.960209,-0.003906
223,-1.442748,-5.480916,15.312977,-0.246339,-0.952396,-0.009766
224,-0.770992,-6.053435,11.679389,-0.234132,-0.952396,-0.004639
225,-0.557252,-7.641221,9.931297,-0.262452,-0.957523,-0.002441
226,-1.022901,-8.671756,7.610687,-0.263917,-0.940433,-0.010010
227,-1.419847,-8.679389,4.977099,-0.244874,-0.927738,-0.008545
228,-0.916030,-9.061068,3.152672,-0.242188,-0.940433,-0.005859
229,-0.671756,-9.893129,2.854962,-0.242188,-0.933353,0.000000
230,-0.366412,-11.038168,2.702290,-0.246583,-0.934574,-0.003174
231,1.572519,-10.770992,-2.954198,-0.304689,-0.951908,-0.007324
232,2.541985,-10.244275,-3.358779,-0.308107,-0.945072,-0.014160
233,3.053435,-9.526717,-4.183206,-0.317384,-0.941410,-0.005859
234,4.045801,-8.320611,-5.511450,-0.328370,-0.953617,0.003662
235,4.770992,-7.221374,-6.870229,-0.337404,-0.968509,0.002930
236,4.587786,-2.610687,-5.664122,-0.298829,-0.962894,0.012451
237,3.679389,-2.061069,-2.832061,-0.302980,-0.960453,0.008545
238,2.549618,-1.664122,-0.389313,-0.297609,-0.963871,0.015381
239,2.129771,-0.862595,1.068702,-0.297120,-0.961673,0.015625
240,1.427481,-0.251908,1.786260,-0.314454,-0.963383,0.008301
241,1.175572,-0.274809,0.801527,-0.305665,-0.959965,-0.004883
242,-0.877863,0.694656,-0.030534,-0.303956,-0.930179,-0.000977
243,-0.793893,1.282443,-1.312977,-0.326906,-0.926761,-0.003662
244,-0.885496,2.175573,-5.389312,-0.328370,-0.917728,-0.002686
245,1.396947,2.877863,-4.358778,-0.326173,-0.959965,-0.014648
246,1.244275,3.091603,-5.091603,-0.325685,-0.940189,-0.013184
247,1.167939,4.267176,-6.007634,-0.310792,-0.936771,-0.000732
248,2.129771,5.488550,-2.778626,-0.281983,-0.948490,0.010498
249,1.916030,5.106870,-0.839695,-0.266847,-0.964847,0.002686
250,1.488550,4.893130,0.396947,-0.263673,-0.975345,-0.002930
251,0.923664,4.549618,1.297710,-0.262940,-0.979496,0.006836
252,0.358779,3.946565,1.839695,-0.267579,-0.988773,-0.000244
253,-0.091603,3.541985,2.152672,-0.264405,-0.975834,0.010498
254,-1.656489,1.030534,2.679389,-0.259278,-0.950931,0.011719
255,-1.770992,0.755725,1.954198,-0.267579,-0.944339,0.012207
256,-1.603053,0.000000,1.022901,-0.285890,-0.951420,0.005127
257,-1.335878,-0.129771,-0.717557,-0.302003,-0.957279,0.003662
258,-0.778626,-0.389313,-3.183206,-0.305421,-0.956791,-0.002930
259,-0.190840,-0.175573,-5.938931,-0.304200,-0.947025,-0.003418
260,2.496183,2.847328,-12.244275,-0.314943,-0.922855,-0.017822
261,3.618321,3.335878,-13.671756,-0.303224,-0.925296,-0.013184
262,4.122137,3.473282,-15.549619,-0.302003,-0.927738,-0.017090
263,4.580152,3.908397,-17.290077,-0.287843,-0.934085,-0.006348
264,4.908397,4.076336,-18.015266,-0.275880,-0.942386,-0.013916
265,5.519084,2.312977,-19.717557,-0.265138,-0.998539,-0.005859
266,3.572519,2.648855,-20.839694,-0.247315,-0.984379,0.006836
267,2.068702,3.091603,-18.763359,-0.238526,-0.971927,-0.004883
268,0.389313,3.045802,-14.282443,-0.237306,-0.964359,0.009033
269,-0.893130,3.335878,-8.297709,-0.232179,-0.945804,0.020020
270,-1.809160,4.091603,-2.587786,-0.224122,-0.951175,0.010986
271,-5.129771,4.893130,2.312977,-0.257813,-0.953861,0.016602
272,-6.145038,6.229008,2.633588,-0.241700,-0.959476,0.008545
273,-6.816794,7.381679,3.648855,-0.244386,-0.960209,0.005615
274,-8.076336,7.755725,6.267176,-0.241456,-0.969486,0.012940
275,-9.007633,6.709924,9.106870,-0.246339,-0.981693,0.018799
276,-9.419848,5.251908,10.312977,-0.250977,-0.987308,0.016113
277,-8.641221,4.740458,0.015267,-0.309083,-1.001224,0.006592
278,-8.656489,5.465648,-3.282443,-0.305909,-0.989750,0.002930
279,-8.305343,5.503816,-6.015267,-0.290284,-0.968509,0.014160
280,-8.129771,5.145038,-7.106870,-0.281983,-0.969486,0.008301
281,-7.374045,4.687023,-7.862595,-0.285401,-0.978031,0.006836
282,-6.954198,4.755725,-9.152672,-0.279542,-0.981693,0.005859
283,-6.755725,4.916030,-13.656488,-0.263673,-0.966068,0.000244
284,-7.435114,4.702290,-13.687023,-0.254640,-0.958988,-0.012451
285,-7.114504,4.694656,-12.656488,-0.251710,-0.954105,-0.015137
286,-7.656488,4.488550,-11.824428,-0.253419,-0.953373,-0.015625
287,-7.824427,4.687023,-11.358779,-0.256349,-0.960697,-0.018066
288,-8.267176,4.687023,-7.343511,-0.231690,-0.949222,-0.003174
289,-8.404580,4.198473,-4.045801,-0.231690,-0.947513,-0.016846
290,-8.603053,3.961832,-0.687023,-0.231446,-0.946781,-0.017822
291,-8.931297,3.931298,1.717557,-0.235352,-0.962406,-0.020264
292,-9.091603,4.053435,3.175573,-0.240968,-0.970707,-0.015381
293,-9.251908,3.511450,3.755725,-0.238770,-0.973392,-0.015137
294,-12.122137,3.725191,17.977099,-0.227784,-0.919681,-0.018555
295,-13.267175,2.977099,26.488549,-0.232179,-0.924808,-0.021973
296,-14.984733,2.190840,34.519086,-0.234620,-0.931644,-0.023926
297,-16.282442,1.832061,39.343508,-0.253419,-0.953861,-0.026123
298,-16.732824,1.992366,40.282444,-0.247315,-0.976078,-0.039795
299,-15.435114,3.977099,22.358778,-0.258302,-0.979252,-0.035401
300,-14.465649,3.732824,17.335879,-0.258790,-0.965091,-0.039307
301,-13.618320,3.923664,14.129771,-0.265870,-0.960697,-0.042481
302,-12.549619,3.129771,12.671755,-0.280763,-0.952884,-0.052002
303,-12.167939,2.633588,11.969465,-0.283448,-0.947269,-0.064942
304,-9.312977,0.618321,2.442748,-0.290773,-0.964847,-0.031738
305,-7.984733,0.236641,-4.511450,-0.297853,-0.965824,-0.039551
306,-7.076336,0.076336,-10.748091,-0.288331,-0.966068,-0.041748
307,-6.801526,-0.389313,-15.007633,-0.275392,-0.964359,-0.049805
308,-6.977099,-0.442748,-16.053434,-0.270021,-0.948734,-0.050293
309,-7.396946,0.038168,-19.137404,-0.302003,-0.943851,-0.044190
310,-6.519084,1.099237,-21.206106,-0.295655,-0.953617,-0.056153
311,-6.259542,1.473282,-23.015266,-0.296388,-0.949711,-0.056885
312,-5.900763,2.038168,-23.351144,-0.295655,-0.940677,-0.053467
313,-5.862595,2.679389,-22.847327,-0.283692,-0.936283,-0.057617
314,-5.916030,4.206106,-8.923664,-0.257569,-0.931156,-0.038574
315,-6.175572,3.946565,-3.396947,-0.258790,-0.928714,-0.052490
316,-6.763358,3.687023,0.969466,-0.250489,-0.945072,-0.032959
317,-7.320610,4.106870,4.198473,-0.249024,-0.948978,-0.028565
318,-6.801526,4.038168,6.534351,-0.256837,-0.958988,-0.030029
319,-6.435114,3.297710,6.343512,-0.274415,-0.980961,-0.026367
320,-6.526717,3.236641,8.183206,-0.265870,-0.986820,-0.009033
321,-7.282442,3.091603,10.190839,-0.266603,-0.988285,-0.020020
322,-8.427481,3.053435,12.274809,-0.277833,-0.988529,-0.013672
323,-8.793892,2.763359,12.641221,-0.284425,-0.983402,-0.028076
324,-9.038168,3.183206,11.083969,-0.289064,-0.993412,-0.029541
325,-8.778625,3.167939,7.748091,-0.278810,-0.991947,-0.034180
326,-8.870228,3.503817,-3.633588,-0.261231,-0.964359,-0.047852
327,-9.198473,3.854962,-5.847328,-0.266114,-0.947025,-0.044434
328,-9.213740,3.763359,-6.427481,-0.271241,-0.941898,-0.045899
329,-9.412213,4.312977,-6.893130,-0.272950,-0.940433,-0.048584
330,-9.625955,4.572519,-6.862595,-0.279542,-0.946537,-0.047363
331,-9.816793,4.366412,-7.442748,-0.276368,-0.944828,-0.043945
332,-9.664123,5.793893,-10.083969,-0.266358,-0.914798,-0.039795
333,-9.251908,5.351145,-7.374045,-0.274171,-0.908695,-0.033203
334,-9.038168,4.931297,-4.251908,-0.257325,-0.922367,-0.034180
335,-8.725191,4.015267,-3.167939,-0.263185,-0.955570,-0.042481
336,-8.977099,3.671756,-4.145038,-0.255860,-0.982426,-0.025391
337,-9.549619,3.160305,-7.877862,-0.248780,-0.974369,-0.030518
338,-10.549619,3.618321,-5.221374,-0.251222,-0.972172,-0.047119
339,-11.740458,4.106870,-2.564885,-0.251710,-0.976322,-0.041748
340,-12.854961,4.648855,-0.160305,-0.242188,-0.982914,-0.032471
341,-14.022901,5.038168,2.312977,-0.242188,-0.979740,-0.042481
342,-15.061069,6.320610,1.687023,-0.318849,-0.989262,-0.058838
343,-14.748091,7.404580,-2.900763,-0.308351,-0.971195,-0.064698
344,-13.893129,8.374045,-7.465649,-0.280030,-0.944584,-0.072022
345,-12.854961,8.641221,-11.381679,-0.255128,-0.934085,-0.059815
346,-11.702290,9.114504,-12.435115,-0.242677,-0.931400,-0.064209
347,-8.221374,7.679389,-17.343512,-0.253663,-0.947269,-0.068848
348,-7.274810,7.770992,-19.717557,-0.241212,-0.946537,-0.065186
349,-7.389313,7.916030,-20.312977,-0.222169,-0.948734,-0.067627
350,-8.412213,7.267175,-20.396946,-0.207520,-0.942875,-0.066651
351,-9.442748,7.442748,-19.618320,-0.197511,-0.939212,-0.054444
352,-10.877862,6.419848,-11.709924,-0.195313,-0.937503,-0.072998
353,-11.030534,6.389313,-11.160304,-0.198975,-0.941898,-0.064698
354,-11.618320,6.480916,-9.870229,-0.197022,-0.943851,-0.068848
355,-11.847328,5.625954,-7.244274,-0.189210,-0.950931,-0.061035
356,-12.229008,4.862596,-4.786260,-0.180665,-0.967289,-0.058350
357,-12.923664,2.625954,-9.290076,-0.219727,-1.031010,-0.042481
358,-13.870229,2.251908,-10.511451,-0.220704,-1.022709,-0.043945
359,-14.610686,2.083969,-10.305343,-0.219483,-1.019535,-0.044190
360,-15.389313,1.916030,-9.083969,-0.225587,-1.006596,-0.037598
361,-15.732823,1.809160,-7.702290,-0.239503,-1.008793,-0.047608
362,-15.312977,3.877862,-8.732825,-0.263673,-0.983402,-0.078858
363,-14.977099,4.648855,-8.854961,-0.271730,-0.963871,-0.087891
364,-15.106871,5.969466,-8.694657,-0.269288,-0.949222,-0.092286
365,-14.862596,6.824427,-7.908397,-0.264405,-0.938480,-0.096924
366,-14.564885,7.519084,-6.748092,-0.256593,-0.934085,-0.103760
367,-13.145039,7.938931,-1.862595,-0.280030,-0.952884,-0.116456
368,-13.244275,6.923664,-4.992366,-0.283204,-0.959476,-0.107666
369,-13.389313,6.809160,-9.244275,-0.261720,-0.945804,-0.106202
370,-12.175572,6.900763,-13.488549,-0.245118,-0.925541,-0.107666
371,-10.427481,6.526717,-16.045801,-0.221436,-0.928714,-0.112549
372,-8.702290,4.732824,-10.473283,-0.189698,-0.935306,-0.096924
373,-8.923664,3.916030,-6.992366,-0.196534,-0.951175,-0.107178
374,-9.305344,3.374046,-4.396946,-0.216309,-0.956058,-0.106202
375,-9.557251,3.106870,-1.748092,-0.213380,-0.964359,-0.107422
376,-9.740458,3.526718,0.969466,-0.212159,-0.973881,-0.103760
377,-9.854961,3.503817,3.137405,-0.225587,-0.970463,-0.094971
378,-9.854961,7.534351,4.106870,-0.250489,-0.982914,-0.118653
379,-9.488549,8.603053,3.854962,-0.253907,-0.981205,-0.117676
380,-9.000000,8.900763,4.305344,-0.244874,-0.979008,-0.121582
381,-9.015267,8.916031,5.496183,-0.229981,-0.995853,-0.117188
382,-9.473283,8.763359,7.015267,-0.227784,-1.009769,-0.124512
383,-9.450381,11.083969,2.198473,-0.259278,-0.942142,-0.120850
384,-5.679389,10.679389,-1.717557,-0.219727,-0.942875,-0.119629
385,-5.839694,10.045801,-2.305344,-0.239747,-0.950199,-0.136475
386,-5.641221,9.694656,-3.427481,-0.239259,-0.952152,-0.122071
387,-5.198474,9.778626,-4.480916,-0.237550,-0.958500,-0.125733
388,-4.664122,9.526717,-6.160306,-0.238038,-0.956791,-0.119141
389,-4.656488,9.519083,-8.213740,-0.195802,-0.963383,-0.122803
390,-5.519084,9.038168,-6.885496,-0.201417,-0.951664,-0.129639
391,-5.320611,8.717556,-6.381680,-0.206055,-0.954593,-0.126221
392,-5.015267,8.328244,-6.045802,-0.216065,-0.942142,-0.121827
393,-4.053435,7.954198,-5.580152,-0.222901,-0.949955,-0.121094
394,-3.633588,7.404580,-5.419847,-0.208253,-0.940189,-0.129639
395,-1.992366,6.274809,-4.786260,-0.186524,-0.933109,-0.117188
396,-1.213740,6.312977,-3.633588,-0.194825,-0.931644,-0.126954
397,-0.053435,5.946565,-4.007634,-0.196046,-0.943851,-0.121338
398,1.595420,5.618320,-5.679389,-0.199219,-0.963383,-0.133790
399,2.641221,5.473282,-8.320611,-0.204835,-0.963383,-0.123536
400,3.343511,5.282443,-11.015267,-0.202882,-0.958988,-0.131348
401,3.167939,4.335878,-7.770992,-0.209718,-0.986576,-0.120606
402,2.198473,3.916030,-7.091603,-0.219972,-1.012943,-0.114258
403,1.404580,4.419847,-7.763359,-0.216065,-1.017094,-0.111573
404,0.297710,5.129771,-7.450381,-0.202882,-1.026371,-0.114991
405,-0.709924,5.381679,-6.030534,-0.199952,-1.009037,-0.120606
406,-1.877863,5.893130,-3.534351,-0.198731,-1.007816,-0.114502
407,-4.404580,6.534351,7.167939,-0.187745,-0.956791,-0.117432
408,-4.000000,6.045802,7.488549,-0.188233,-0.948246,-0.117676
409,-3.435114,5.778626,7.595420,-0.189942,-0.943363,-0.124512
410,-2.541985,5.297710,6.885496,-0.188477,-0.937015,-0.132813
411,-1.603053,4.763359,6.450382,-0.196290,-0.935306,-0.114747
412,-0.633588,4.442748,4.984733,-0.200196,-0.941410,-0.134034
413,2.442748,5.770992,-3.007634,-0.243653,-0.955570,-0.128418
414,3.358779,6.358778,-5.862595,-0.250245,-0.972416,-0.123536
415,3.725191,6.984732,-8.137404,-0.252686,-0.979252,-0.132325
416,4.053435,7.511450,-10.984733,-0.242433,-0.964359,-0.128907
417,3.664122,8.167939,-12.381680,-0.232667,-0.961429,-0.127442
418,3.198473,8.732825,-12.221374,-0.214845,-0.965580,-0.134766
419,2.335878,8.839695,-5.297710,-0.198243,-0.977054,-0.102784
420,2.534351,8.381679,-5.801526,-0.198487,-0.983890,-0.111329
421,2.870229,8.473282,-6.503817,-0.197999,-0.972904,-0.114014
422,3.175573,8.381679,-6.702290,-0.195557,-0.969730,-0.093262
423,3.061069,7.717557,-5.900763,-0.183594,-0.973148,-0.098145
424,2.610687,6.839695,-4.236641,-0.176026,-0.977787,-0.085450
425,2.396947,5.114504,-2.198473,-0.185792,-0.970218,-0.102051
426,2.778626,5.435114,-2.694656,-0.176758,-0.977543,-0.103516
427,2.709924,5.473282,-2.786260,-0.187989,-0.967533,-0.108643
428,2.374046,5.312977,-2.671756,-0.182862,-0.970951,-0.107911
429,1.687023,5.557252,-2.786260,-0.187745,-0.974613,-0.096680
430,1.290076,6.221374,-2.992366,-0.183839,-0.976078,-0.093018
431,0.053435,7.396946,-2.358779,-0.162354,-0.972172,-0.077393
432,0.015267,7.305343,-1.572519,-0.165528,-0.988529,-0.067871
433,-0.183206,6.694656,-1.190840,-0.166749,-0.995609,-0.059082
434,-0.969466,6.137404,-1.236641,-0.159424,-1.005131,-0.068360
435,-1.847328,5.610687,-1.129771,-0.151124,-1.009769,-0.053711
436,-2.656489,4.694656,-0.580153,-0.146485,-0.999760,-0.051514
437,-5.740458,2.145038,3.137405,-0.185792,-0.991703,-0.058594
438,-6.480916,2.000000,3.022901,-0.187745,-0.991459,-0.075196
439,-6.763358,1.946565,2.870229,-0.175782,-0.984867,-0.076172
440,-6.984732,1.984733,3.290076,-0.163331,-0.981937,-0.085450
441,-7.763359,1.229008,4.954198,-0.155030,-0.971927,-0.093018
442,-8.480916,0.709924,6.633588,-0.159424,-0.960941,-0.088868
443,-6.923664,-1.358779,8.946564,-0.139405,-0.956791,-0.094727
444,-6.885496,-2.633588,9.832061,-0.153077,-0.955326,-0.093262
445,-6.984732,-3.809160,9.877863,-0.163087,-0.955570,-0.093750
446,-6.870229,-4.717557,8.702290,-0.160645,-0.964359,-0.091553
447,-6.580153,-5.519084,6.038168,-0.179200,-0.950443,-0.100586
448,-5.610687,-5.969466,3.007634,-0.189210,-0.952396,-0.104981
449,-2.061069,-7.610687,-5.435114,-0.230958,-0.981449,-0.101807
450,-2.343511,-7.572519,-6.526717,-0.239747,-0.995121,-0.111817
451,-2.778626,-7.000000,-6.824427,-0.230225,-0.990970,-0.106690
452,-3.366412,-6.480916,-6.229008,-0.235841,-0.982426,-0.112061
453,-3.732824,-5.648855,-4.641222,-0.229249,-0.976078,-0.124268
454,-3.755725,-2.916031,-4.694656,-0.240479,-0.961673,-0.144288
455,-3.923664,-2.167939,-4.419847,-0.236573,-0.950931,-0.149170
456,-3.961832,-1.198473,-3.801527,-0.223878,-0.925785,-0.147706
457,-3.572519,-0.557252,-2.404580,-0.233888,-0.911624,-0.146485
458,-2.931298,-0.007634,-1.480916,-0.240724,-0.914554,-0.145753
459,-4.221374,2.000000,4.503816,-0.221192,-0.927494,-0.135987
460,-4.427481,1.916030,7.656488,-0.200440,-0.927982,-0.118653
461,-4.076336,1.793893,9.564885,-0.184083,-0.935306,-0.111329
462,-4.076336,1.114504,10.786259,-0.171632,-0.963871,-0.106690
463,-4.206106,0.137405,11.015267,-0.167969,-0.983402,-0.108887
464,-4.854962,-1.587786,11.603053,-0.170899,-0.992679,-0.091309
465,-8.030534,-5.045801,17.381679,-0.206788,-0.999027,-0.106202
466,-8.328244,-5.251908,17.511449,-0.205079,-1.014652,-0.097412
467,-8.755724,-5.511450,16.053434,-0.200684,-1.018803,-0.112061
468,-8.938931,-6.221374,15.145038,-0.202637,-1.005375,-0.113526
469,-8.740458,-6.725190,13.618320,-0.194337,-0.999271,-0.103760
470,-8.251908,-8.618321,14.519083,-0.192872,-0.973392,-0.128174
471,-8.442748,-9.717557,13.900763,-0.203370,-0.964847,-0.128418
472,-8.015267,-10.587787,11.877863,-0.198487,-0.966068,-0.132569
473,-7.030534,-11.412213,8.557252,-0.206300,-0.959720,-0.138672
474,-6.335878,-11.465648,4.877862,-0.225343,-0.962894,-0.135499
475,-4.572519,-8.984732,0.076336,-0.241212,-0.940189,-0.134766
476,-4.694656,-8.427481,1.145038,-0.238038,-0.933109,-0.147950
477,-4.748092,-7.969466,1.931298,-0.233155,-0.940677,-0.148926
478,-4.259542,-7.511450,2.404580,-0.238282,-0.941654,-0.136475
479,-4.106870,-7.083969,1.679389,-0.244874,-0.944584,-0.145997
480,-3.770992,-6.587786,0.748092,-0.235352,-0.930668,-0.153565
481,-3.068702,-5.473282,4.022901,-0.227540,-0.926761,-0.134522
482,-3.129771,-5.442748,5.106870,-0.233399,-0.931400,-0.140381
483,-2.656489,-5.709924,5.793893,-0.248292,-0.942386,-0.140870
484,-1.916030,-5.106870,4.519084,-0.260987,-0.946781,-0.143311
485,-1.053435,-4.183206,2.389313,-0.258302,-0.954593,-0.131104
486,-0.679389,-4.236641,3.091603,-0.218995,-0.954593,-0.111817
487,-1.793893,-5.427480,4.908397,-0.220704,-0.967533,-0.116700
488,-1.595420,-5.740458,7.045802,-0.221436,-0.955570,-0.108155
489,-1.374046,-6.328244,9.267176,-0.227052,-0.973881,-0.112793
490,-0.694656,-5.702290,8.488549,-0.255372,-0.965824,-0.111573
491,-0.251908,-4.587786,5.213740,-0.265870,-0.961673,-0.122315
492,0.297710,-1.709924,0.458015,-0.238526,-0.959476,-0.112061
493,0.404580,-0.847328,1.511450,-0.239747,-0.948490,-0.123780
494,0.763359,-0.183206,1.717557,-0.242921,-0.954349,-0.122803
495,1.435115,0.557252,1.404580,-0.231934,-0.955570,-0.107666
496,2.106870,0.916030,1.564885,-0.225098,-0.959232,-0.119629
497,2.083969,1.076336,1.106870,-0.222169,-0.964847,-0.109620
498,0.274809,3.053435,2.755725,-0.238770,-0.965091,-0.111329
499,-0.038168,4.198473,3.709924,-0.250733,-0.954593,-0.098633
500,-0.419847,5.541984,5.809160,-0.249269,-0.951664,-0.098145
501,-0.717557,6.274809,7.519084,-0.236085,-0.951664,-0.100098
502,-0.587786,6.786259,8.343511,-0.231446,-0.962894,-0.099121
503,-0.183206,7.206106,7.961832,-0.230958,-0.956058,-0.079346
504,2.549618,7.190839,2.900763,-0.218263,-0.951664,-0.077637
505,3.114504,6.381680,2.916031,-0.212647,-0.952396,-0.064209
506,3.633588,6.129771,2.183206,-0.218507,-0.953129,-0.068360
507,4.282442,5.778626,1.152672,-0.212647,-0.956302,-0.059326
508,5.328244,5.541984,0.152672,-0.217774,-0.970218,-0.072266
509,5.847328,4.793893,-1.496183,-0.224610,-0.974125,-0.064453
510,6.022900,2.832061,-5.496183,-0.184815,-1.000004,-0.053223
511,4.778626,1.687023,-4.320610,-0.176270,-1.017338,-0.057373
512,3.671756,0.213740,-3.160305,-0.173585,-1.019047,-0.039795
513,2.137405,-1.259542,-2.129771,-0.179200,-1.033695,-0.041748
514,0.404580,-2.625954,-1.778626,-0.179688,-1.033207,-0.053955
515,-0.923664,-3.541985,-2.129771,-0.189454,-1.039799,-0.044922
516,-4.221374,-3.244275,0.832061,-0.219483,-0.989750,-0.077881
517,-4.870229,-3.526718,2.297710,-0.204591,-0.965091,-0.092041
518,-5.206107,-3.587786,4.458015,-0.200684,-0.942142,-0.101807
519,-5.328244,-4.183206,5.404580,-0.205323,-0.928959,-0.100830
520,-4.625954,-4.152672,3.923664,-0.225343,-0.922611,-0.103516
521,-3.106870,-4.320610,1.366412,-0.226563,-0.917484,-0.100342
522,0.396947,-1.572519,-3.251908,-0.256593,-0.907718,-0.115723
523,0.824427,0.152672,-2.015267,-0.262208,-0.908451,-0.108643
524,1.290076,1.755725,0.053435,-0.275148,-0.919437,-0.115967
525,1.282443,3.229008,0.664122,-0.268800,-0.940433,-0.109620
526,1.343511,4.847328,0.755725,-0.274903,-0.959232,-0.101319
527,1.412214,5.946565,-0.267176,-0.277345,-0.984623,-0.099854
528,0.061069,8.503817,-1.229008,-0.209473,-0.983646,-0.088623
529,-0.969466,8.274809,1.366412,-0.180665,-0.982670,-0.088379
530,-1.709924,7.610687,4.687023,-0.170167,-0.977543,-0.087891
531,-2.389313,6.106870,6.793893,-0.168702,-0.965824,-0.078125
532,-2.938931,5.282443,8.106870,-0.168702,-0.967777,-0.088623
533,-3.053435,3.786259,8.633588,-0.168702,-0.951664,-0.092286
534,-1.404580,-0.290076,8.419847,-0.194093,-0.931156,-0.108643
535,-0.877863,-0.763359,7.137404,-0.191163,-0.924076,-0.114991
536,0.221374,-1.480916,6.885496,-0.190919,-0.925052,-0.103516
537,0.503817,-1.312977,6.564885,-0.196778,-0.927005,-0.106202
538,0.969466,-1.244275,8.129771,-0.208741,-0.937259,-0.121338
539,1.190840,-1.687023,9.427480,-0.211182,-0.939701,-0.115235
540,1.893130,-3.221374,13.335877,-0.191407,-0.922611,-0.108155
541,2.045802,-3.717557,15.305344,-0.187012,-0.933109,-0.110596
542,1.786260,-4.770992,16.618320,-0.204102,-0.948978,-0.111573
543,1.748092,-5.595420,15.061069,-0.225343,-0.965824,-0.101807
544,1.648855,-6.068702,11.419847,-0.235108,-0.971683,-0.106202
545,1.832061,-6.068702,2.175573,-0.259767,-0.973148,-0.115235
546,1.236641,-5.977099,3.015267,-0.265138,-0.965091,-0.103272
547,0.916030,-5.396946,2.885496,-0.263673,-0.963383,-0.113526
548,1.526717,-4.854962,2.061069,-0.286134,-0.958256,-0.114258
549,1.870229,-3.687023,1.007634,-0.288819,-0.969486,-0.121338
550,1.908397,-2.419847,-0.030534,-0.292726,-0.964359,-0.113038
551,1.114504,1.954198,0.961832,-0.254395,-0.944339,-0.132081
552,0.786260,2.488550,1.992366,-0.241212,-0.954593,-0.111573
553,0.824427,2.931298,1.206107,-0.234376,-0.961429,-0.108887
554,0.580153,2.832061,0.694656,-0.227296,-0.976566,-0.119385
555,-0.366412,2.114504,0.213740,-0.221192,-0.972660,-0.109864
556,-1.114504,1.396947,-0.091603,-0.213380,-0.967777,-0.104737
557,-1.633588,-1.274809,0.694656,-0.254640,-0.973392,-0.102051
558,-0.526718,-0.732824,-0.877863,-0.263185,-0.969486,-0.103516
559,0.320611,-0.519084,-3.259542,-0.269288,-0.968265,-0.100342
560,0.641221,-0.351145,-4.664122,-0.274903,-0.975834,-0.103028
561,1.106870,-0.198473,-4.816794,-0.264161,-0.967289,-0.094971
562,0.763359,-0.870229,-3.366412,-0.275880,-0.985111,-0.104981
563,0.709924,-1.007634,-5.564885,-0.268556,-1.004398,-0.109131
564,0.679389,-1.045802,-7.549618,-0.256837,-1.000980,-0.113282
565,0.488550,-0.526718,-8.297709,-0.246339,-0.981205,-0.105713
566,0.206107,-0.511450,-6.885496,-0.236573,-0.977787,-0.105957
567,-0.450382,-0.137405,-4.862596,-0.250733,-0.972660,-0.127442
568,-1.053435,2.572519,-0.755725,-0.231934,-0.961918,-0.113282
569,-1.038168,2.450382,0.389313,-0.225831,-0.957523,-0.108155
570,-1.328244,2.175573,1.900763,-0.224122,-0.953129,-0.110352
571,-1.358779,1.305343,2.748092,-0.227052,-0.950931,-0.120118
572,-1.351145,0.290076,2.374046,-0.223878,-0.944584,-0.105469
573,-0.450382,-0.091603,1.076336,-0.226563,-0.932132,-0.107422
574,2.000000,-4.389313,0.221374,-0.209718,-0.953617,-0.122315
575,2.442748,-6.297710,-0.458015,-0.197999,-0.954349,-0.131104
576,2.442748,-7.954198,-0.610687,-0.218507,-0.951664,-0.135254
577,3.061069,-9.221374,-2.290076,-0.232179,-0.945072,-0.121094
578,4.015267,-9.687023,-3.442748,-0.229005,-0.940189,-0.143555
579,4.732824,-10.358778,-4.885496,-0.225098,-0.922367,-0.133301
580,7.244274,-7.030534,-5.740458,-0.265870,-0.924320,-0.125000
581,7.786259,-4.625954,-5.358779,-0.274659,-0.935062,-0.119141
582,7.862595,-2.129771,-4.267176,-0.277833,-0.954593,-0.110108
583,7.320610,0.160305,-3.259542,-0.284913,-0.961185,-0.103516
584,6.885496,2.641221,-2.213740,-0.275148,-0.960209,-0.109131
585,6.954198,5.053435,-1.923664,-0.271241,-0.956791,-0.088868
586,7.083969,10.007633,-1.923664,-0.230470,-0.990238,-0.055908
587,5.312977,10.267175,-0.938931,-0.212891,-0.993900,-0.053223
588,4.549618,9.984732,-0.267176,-0.201173,-0.996342,-0.042725
589,3.702290,9.335877,1.053435,-0.184815,-0.989506,-0.034668
590,3.000000,8.534351,2.847328,-0.178956,-1.000004,-0.024170
591,2.496183,7.770992,4.557252,-0.171632,-1.001469,-0.033692
592,-0.458015,5.091603,5.793893,-0.182862,-1.007084,-0.030029
593,-1.106870,4.389313,5.648855,-0.173585,-0.999027,-0.025635
594,-1.648855,3.312977,5.473282,-0.176270,-1.002933,-0.022461
595,-2.015267,2.404580,5.404580,-0.170655,-0.994633,-0.043701
596,-2.526718,1.587786,4.015267,-0.188477,-0.996097,-0.030274
597,-2.641221,0.740458,2.679389,-0.191407,-0.990238,-0.039551
598,-2.740458,-1.740458,1.694656,-0.207276,-0.958744,-0.054932
599,-3.053435,-1.938931,1.190840,-0.220216,-0.958500,-0.073242
600,-2.358779,-1.641221,0.427481,-0.258790,-0.948490,-0.084961
601,-1.816794,-1.381679,-1.625954,-0.268312,-0.952396,-0.081055
602,-1.099237,-0.106870,-3.641221,-0.274171,-0.941410,-0.088379
603,1.442748,2.854962,-6.824427,-0.301515,-0.945072,-0.098633
604,2.572519,3.900763,-10.396947,-0.293458,-0.938968,-0.086182
605,3.458015,5.083969,-13.236641,-0.287110,-0.933109,-0.111573
606,4.244274,5.832061,-14.740458,-0.264161,-0.945316,-0.095948
607,4.526718,6.213740,-14.664122,-0.246339,-0.953129,-0.084961
608,4.610687,6.442748,-12.809160,-0.235597,-0.963138,-0.085205
609,2.541985,6.160306,-7.603053,-0.232667,-0.985599,-0.087891
610,2.007634,6.389313,-6.030534,-0.235108,-1.000736,-0.079102
611,1.320611,6.343512,-4.633588,-0.242921,-0.997074,-0.091797
612,0.435115,6.908396,-3.526718,-0.244630,-0.989994,-0.076905
613,-0.267176,7.335878,-1.549618,-0.239503,-0.980717,-0.086426
614,-0.893130,7.480916,0.236641,-0.242921,-0.982914,-0.090088
615,-3.511450,9.442748,5.404580,-0.234620,-0.966801,-0.095948
616,-3.641221,10.083969,6.351145,-0.230470,-0.966556,-0.097901
617,-3.496183,10.374046,6.961832,-0.229249,-0.960209,-0.093750
618,-3.862595,9.969465,7.931298,-0.228272,-0.964359,-0.095948
619,-3.984733,9.725191,7.839694,-0.229249,-0.960941,-0.105225
620,-4.412214,9.167939,6.099236,-0.229493,-0.957279,-0.097657
621,-4.259542,5.969466,0.396947,-0.216309,-0.965091,-0.104493
622,-3.824427,4.732824,-1.564885,-0.226563,-0.965824,-0.096192
623,-3.290076,4.519084,-3.259542,-0.234376,-0.969242,-0.100098
624,-2.641221,4.496183,-5.106870,-0.234132,-0.967777,-0.101807
625,-1.870229,4.427481,-6.175572,-0.235108,-0.965824,-0.112305
626,-1.374046,4.992366,-7.374045,-0.248292,-0.954349,-0.106446
627,2.656489,9.099236,-9.465648,-0.264649,-0.919437,-0.125245
628,4.083969,10.335878,-9.076336,-0.255860,-0.919681,-0.123047
629,5.526718,11.274808,-8.083969,-0.235597,-0.934085,-0.120362
630,6.061068,12.229008,-6.908396,-0.237306,-0.934574,-0.126954
631,6.671756,12.702291,-5.900763,-0.232667,-0.946293,-0.118164
632,7.458015,12.458016,-3.969466,-0.196046,-0.956791,-0.095459
633,7.358778,11.511450,-5.473282,-0.197511,-0.962162,-0.091797
634,7.633588,10.389313,-6.374046,-0.183106,-0.980717,-0.096680
635,7.725191,9.267176,-6.954198,-0.186036,-0.981693,-0.083985
636,7.541984,7.717557,-7.160305,-0.184083,-0.991215,-0.081055
637,6.740458,6.427481,-7.076336,-0.187501,-0.992924,-0.082032
638,4.931297,5.106870,-5.679389,-0.201905,-0.968998,-0.093506
639,5.167939,5.061069,-5.229008,-0.199952,-0.960941,-0.087159
640,5.442748,5.129771,-5.229008,-0.196290,-0.957279,-0.085694
641,5.648855,5.221374,-4.786260,-0.197999,-0.955814,-0.092530
642,5.984733,5.396946,-4.732824,-0.213868,-0.960209,-0.097412
643,6.381680,5.931298,-4.175573,-0.210206,-0.961429,-0.099121
644,7.404580,7.946565,-5.587786,-0.221192,-0.958011,-0.099610
645,7.442748,9.045801,-5.396946,-0.220216,-0.961918,-0.101319
646,7.328244,9.954199,-4.740458,-0.223390,-0.975345,-0.103028
647,6.664122,10.618320,-4.183206,-0.216065,-0.984379,-0.083741
648,5.923664,11.297709,-3.717557,-0.209718,-0.995121,-0.076660
649,5.076336,11.374045,-2.664122,-0.212403,-1.003666,-0.068115
650,2.068702,12.664123,4.618320,-0.206544,-0.989994,-0.059082
651,1.351145,12.908397,6.366412,-0.208009,-0.984379,-0.067383
652,1.206107,12.893129,6.679389,-0.209962,-0.977054,-0.082276
653,1.442748,13.045801,5.702290,-0.213380,-0.979496,-0.077881
654,2.022901,13.190839,4.206106,-0.207032,-0.971195,-0.078369
655,2.664122,13.519084,3.106870,-0.205323,-0.961673,-0.084961
656,4.351145,13.290076,-2.366412,-0.212159,-0.960697,-0.086914
657,4.625954,13.099236,-5.625954,-0.193360,-0.958011,-0.086914
658,5.435114,12.931297,-6.671756,-0.173096,-0.965824,-0.081543
659,5.213740,12.335877,-5.908397,-0.154297,-0.974125,-0.056641
660,4.641222,11.053435,-4.870229,-0.157715,-0.987064,-0.068115
661,2.007634,9.427480,-5.282443,-0.192872,-1.010746,-0.045410
662,1.358779,9.435115,-4.900764,-0.197755,-1.005131,-0.062256
663,1.236641,9.671755,-3.923664,-0.189210,-0.991703,-0.049805
664,0.885496,9.351144,-2.748092,-0.192384,-0.993656,-0.053711
665,0.946565,9.267176,-1.992366,-0.199219,-0.981205,-0.042481
666,1.419847,9.167939,-1.809160,-0.205811,-0.983890,-0.062500
667,1.923664,9.709923,0.114504,-0.191651,-0.950199,-0.083496
668,1.946565,9.969465,1.366412,-0.185303,-0.936771,-0.085450
669,1.977099,10.190839,1.885496,-0.196290,-0.935306,-0.088135
670,2.099237,10.786259,2.572519,-0.199952,-0.936283,-0.085694
671,2.053435,11.335877,2.648855,-0.202882,-0.939212,-0.093018
672,2.106870,11.755724,2.824427,-0.203126,-0.948490,-0.099610
673,1.312977,11.969465,2.702290,-0.190186,-0.962406,-0.069824
674,1.366412,11.931297,2.832061,-0.192139,-0.960941,-0.073731
675,1.618321,11.885496,2.946565,-0.191407,-0.973148,-0.064453
676,1.572519,11.862596,3.709924,-0.198243,-0.980717,-0.064453
677,1.572519,12.106870,4.221374,-0.210206,-0.991947,-0.061524
678,1.320611,12.114504,3.610687,-0.228761,-1.001224,-0.047852
679,1.435115,13.053435,0.145038,-0.205811,-0.977543,-0.055908
680,1.717557,12.992367,-0.129771,-0.200440,-0.978519,-0.059326
681,1.694656,12.984732,0.580153,-0.192628,-0.981937,-0.069092
682,1.213740,12.366412,1.274809,-0.182618,-0.971439,-0.078858
683,0.931298,11.625954,1.656489,-0.176270,-0.959232,-0.066651
684,0.725191,10.862595,1.450382,-0.178223,-0.958988,-0.070557
685,1.389313,8.946564,-2.198473,-0.179688,-0.969730,-0.075928
686,1.809160,8.458015,-2.969466,-0.190430,-0.970951,-0.069580
687,1.511450,7.702290,-3.580153,-0.175538,-0.982181,-0.066162
688,1.335878,6.870229,-3.305344,-0.182862,-0.987552,-0.076905
689,0.152672,6.458016,-3.374046,-0.189698,-0.987552,-0.059571
690,-0.893130,6.618320,-2.702290,-0.200684,-0.986088,-0.065186
691,-3.519084,9.122137,10.000000,-0.212159,-0.961673,-0.069824
692,-4.045801,10.038168,12.335877,-0.214356,-0.958988,-0.076905
693,-3.984733,10.801527,15.045800,-0.226563,-0.950199,-0.083008
694,-3.404580,11.282443,18.366413,-0.237061,-0.941410,-0.087647
695,-3.358779,12.122137,21.809159,-0.224854,-0.941410,-0.092286
696,-2.503817,15.114503,15.572519,-0.195069,-0.951908,-0.094727
697,-1.435115,14.717557,12.328244,-0.192628,-0.958011,-0.091797
698,-0.068702,15.740458,8.206107,-0.190919,-0.946293,-0.095215
699,1.473282,15.435114,6.160306,-0.190675,-0.942142,-0.084961
700,2.641221,15.007633,5.992366,-0.186280,-0.944339,-0.090821
701,4.954198,10.931297,-0.015267,-0.206300,-0.986332,-0.073242
702,6.137404,10.175572,-4.503816,-0.213868,-0.995609,-0.078369
703,6.717557,9.526717,-7.557252,-0.206300,-0.994633,-0.067627
704,6.709924,8.809160,-8.549618,-0.197755,-0.989017,-0.057617
705,6.312977,7.900763,-8.045801,-0.197511,-0.992679,-0.053223
706,5.190840,6.961832,-6.450382,-0.194581,-0.990970,-0.046875
707,2.885496,6.427481,-5.572519,-0.232667,-0.986332,-0.072266
708,2.923664,7.198474,-7.068702,-0.240479,-0.975101,-0.072022
709,3.511450,7.152672,-7.435114,-0.217774,-0.969486,-0.065674
710,3.244275,6.198473,-7.091603,-0.181885,-0.958011,-0.074951
711,2.908397,5.450382,-5.854962,-0.205079,-0.971683,-0.081055
712,2.206107,5.595420,-8.564885,-0.232179,-0.969242,-0.068115
713,1.244275,7.618320,-4.740458,-0.188721,-0.996586,-0.067383
714,-0.656489,7.587786,-2.534351,-0.194581,-0.988773,-0.072998
715,-1.641221,7.946565,-0.183206,-0.211427,-0.992191,-0.065918
716,-1.770992,8.343511,0.320611,-0.228272,-0.991703,-0.072998
717,-1.061069,9.595419,-0.267176,-0.248536,-0.996830,-0.076660
718,-0.656489,10.427481,-1.702290,-0.252198,-0.992435,-0.068848
719,-2.488550,11.297709,2.557252,-0.208009,-0.976322,-0.079590
720,-2.511450,11.671756,3.519084,-0.206788,-0.971439,-0.071045
721,-1.961832,12.099236,3.358779,-0.219972,-0.966556,-0.068848
722,-1.229008,12.190840,2.809160,-0.211427,-0.966068,-0.061768
723,-0.801527,11.778625,2.946565,-0.206300,-0.981205,-0.064453
724,-3.603053,10.076336,2.923664,-0.190919,-0.954349,-0.083008
725,-3.213740,9.824427,1.007634,-0.208985,-0.947025,-0.085694
726,-2.167939,9.824427,-0.740458,-0.222901,-0.947513,-0.082764
727,-1.175572,9.748091,-2.137405,-0.229493,-0.945072,-0.092530
728,-0.633588,10.198473,-3.358779,-0.241700,-0.947025,-0.099854
729,-0.450382,15.297709,-4.305344,-0.259034,-0.980717,-0.094971
730,-1.091603,17.374046,-2.763359,-0.256349,-0.991459,-0.096436
731,-1.625954,18.702289,-0.923664,-0.246339,-1.005863,-0.080567
732,-2.885496,20.267176,0.793893,-0.229249,-1.004398,-0.085938
733,-3.870229,21.274808,2.862595,-0.220216,-1.013187,-0.085205
734,-7.679389,20.862594,8.450381,-0.173340,-0.999027,-0.080811
735,-8.297709,19.740457,9.038168,-0.168946,-0.989506,-0.079102
736,-8.748092,18.351144,9.427480,-0.165528,-0.976566,-0.081299
737,-8.694657,17.030535,8.832060,-0.170899,-0.966556,-0.086914
738,-8.236641,15.801526,7.946565,-0.173340,-0.951175,-0.081299
739,-5.595420,11.938932,3.213740,-0.204346,-0.938968,-0.082276
740,-4.793893,11.251908,1.381679,-0.212159,-0.948978,-0.089112
741,-4.251908,10.809160,-0.832061,-0.223145,-0.952884,-0.077149
742,-3.961832,10.320610,-3.793893,-0.225831,-0.955326,-0.080811
743,-3.526718,10.458015,-5.580152,-0.224610,-0.958256,-0.080078
744,-4.656488,12.167939,-0.870229,-0.238282,-0.962894,-0.086670
745,-4.801526,12.793893,-0.809160,-0.242677,-0.966068,-0.109375
746,-4.992366,13.893129,-1.832061,-0.239503,-0.961673,-0.101075
747,-4.511450,14.870228,-2.404580,-0.233888,-0.941410,-0.097657
748,-3.908397,15.274808,-2.351145,-0.219727,-0.931644,-0.103272
749,0.061069,15.786259,-0.656489,-0.190430,-0.910404,-0.101319
750,1.572519,15.793892,-1.984733,-0.196778,-0.916996,-0.077637
751,3.778626,15.381680,-4.396946,-0.211427,-0.942386,-0.082520
752,4.824428,15.068702,-6.335878,-0.220216,-0.975590,-0.071045
753,5.465648,14.793892,-7.511450,-0.222169,-0.994388,-0.075440
754,3.312977,14.083969,-5.145038,-0.190675,-1.005863,-0.054932
755,2.862595,13.694656,-3.572519,-0.181397,-1.006840,-0.042236
756,2.183206,13.832061,-1.793893,-0.181641,-0.998539,-0.046631
757,1.251908,13.343511,0.534351,-0.185792,-0.999760,-0.039795
758,-0.213740,13.320610,2.572519,-0.183839,-0.999271,-0.053955
759,-1.343511,13.106871,4.465649,-0.189210,-1.001224,-0.062744
760,-2.961832,13.290076,6.893130,-0.195802,-0.988041,-0.073242
761,-2.526718,13.236641,5.511450,-0.194825,-0.972172,-0.077881
762,-2.480916,13.374045,4.473282,-0.191407,-0.971439,-0.086182
763,-2.519084,13.290076,3.770992,-0.186280,-0.971683,-0.083008
764,-2.954198,12.954199,4.137405,-0.182862,-0.967289,-0.088623
765,-1.687023,12.412213,3.648855,-0.203370,-0.952640,-0.090821
766,-0.671756,12.251908,1.465649,-0.199952,-0.959720,-0.100586
767,0.511450,11.916031,-0.366412,-0.199219,-0.949711,-0.076172
768,1.419847,11.465648,-1.816794,-0.191895,-0.945804,-0.087159
769,3.007634,11.007633,-2.709924,-0.186524,-0.950931,-0.081055
770,5.557252,7.801527,-2.274809,-0.179688,-0.975101,-0.070069
771,6.030534,7.259542,-2.541985,-0.187501,-0.985599,-0.068360
772,6.183206,6.740458,-2.786260,-0.196290,-0.979252,-0.073487
773,6.412214,5.854962,-3.595420,-0.195802,-0.986576,-0.068115
774,6.267176,5.083969,-3.496183,-0.189454,-0.991459,-0.063721
775,5.938931,4.923664,-3.755725,-0.209718,-0.988285,-0.064942
776,4.175573,4.740458,-6.351145,-0.226075,-1.022221,-0.080811
777,3.648855,5.404580,-8.328244,-0.237061,-1.019291,-0.063965
778,3.374046,5.954198,-7.480916,-0.230714,-1.021488,-0.060791
779,2.534351,6.381680,-5.839694,-0.215577,-1.024418,-0.065918
780,1.633588,6.755725,-3.992366,-0.216309,-1.020756,-0.073242
781,0.961832,6.969466,-2.923664,-0.210938,-1.002201,-0.059815
782,-0.923664,6.122138,2.587786,-0.211671,-0.978275,-0.074463
783,-0.381679,6.297710,2.183206,-0.212159,-0.979252,-0.064698
784,-0.488550,5.885496,2.923664,-0.202637,-0.982914,-0.070069
785,-0.580153,5.458015,3.244275,-0.209229,-0.986820,-0.074707
786,-0.740458,5.396946,1.809160,-0.225831,-0.976078,-0.080567
787,-0.656489,5.877862,0.717557,-0.237061,-0.970463,-0.077149
788,-1.732824,8.480916,3.832061,-0.215089,-0.957523,-0.097412
789,-2.557252,9.183206,4.015267,-0.232667,-0.949711,-0.102295
790,-2.076336,10.045801,4.641222,-0.227540,-0.942142,-0.099121
791,-1.572519,10.641221,4.358778,-0.236329,-0.933597,-0.107666
792,-0.496183,11.534351,3.183206,-0.233888,-0.925052,-0.106934
793,0.870229,12.412213,2.221374,-0.221436,-0.926517,-0.109620
794,3.000000,12.106870,0.740458,-0.183594,-0.959232,-0.094971
795,2.656489,11.732824,1.648855,-0.161378,-0.962894,-0.095948
796,2.931298,11.236640,3.122137,-0.150635,-0.970463,-0.087647
797,2.847328,10.381679,4.595420,-0.146973,-0.975101,-0.093018
798,2.557252,9.335877,5.801526,-0.144288,-0.977054,-0.080567
799,2.526718,8.412213,6.213740,-0.154542,-0.976078,-0.087891
800,2.877863,6.244275,4.824428,-0.175538,-0.968509,-0.093506
801,2.847328,5.755725,4.870229,-0.174073,-0.967289,-0.089600
802,2.824427,5.610687,5.183206,-0.180665,-0.963383,-0.087159
803,2.969466,5.129771,5.679389,-0.179932,-0.950687,-0.089600
804,3.038168,4.992366,5.816794,-0.180176,-0.941410,-0.095459
805,3.488550,4.885496,5.793893,-0.187257,-0.945316,-0.105957
806,5.183206,4.931297,0.175573,-0.224854,-0.965091,-0.092774
807,5.564885,4.770992,-0.961832,-0.211915,-0.966556,-0.099121
808,5.312977,4.877862,0.328244,-0.215577,-0.971439,-0.084473
809,4.732824,4.618320,1.282443,-0.222169,-0.967289,-0.101319
810,4.282442,5.190840,2.839695,-0.222901,-0.955814,-0.093994
811,4.053435,5.854962,4.496183,-0.235108,-0.951175,-0.099121
812,5.519084,6.183206,8.603053,-0.195557,-0.957279,-0.082276
813,5.526718,6.198473,6.458016,-0.206544,-0.977054,-0.072266
814,5.374046,5.923664,3.549618,-0.204346,-0.982914,-0.072998
815,5.358779,5.526718,1.671756,-0.192628,-0.976810,-0.066895
816,5.129771,4.480916,1.870229,-0.190675,-0.980472,-0.065186
817,4.908397,3.496183,3.351145,-0.190186,-0.989262,-0.062500
818,4.076336,1.862595,1.480916,-0.192139,-1.000004,-0.064698
819,3.656489,1.076336,1.847328,-0.191407,-0.999027,-0.063477
820,2.900763,0.236641,2.496183,-0.193604,-1.000736,-0.065186
821,2.015267,-0.519084,3.381679,-0.199219,-0.992435,-0.066651
822,1.618321,-0.801527,4.282442,-0.212159,-0.989994,-0.063721
823,0.877863,-0.778626,3.480916,-0.206544,-0.981693,-0.061768
824,2.374046,1.083969,4.137405,-0.248780,-0.981449,-0.083252
825,0.404580,2.473282,6.129771,-0.249513,-0.960697,-0.091553
826,-0.290076,3.656489,6.267176,-0.260499,-0.958500,-0.089844
827,-0.167939,4.816794,6.221374,-0.266358,-0.957523,-0.082520
828,0.740458,5.938931,5.618320,-0.258302,-0.959232,-0.077881
829,1.244275,7.221374,1.687023,-0.267579,-0.950931,-0.085938
830,3.221374,8.877863,0.099237,-0.247071,-0.972172,-0.086670
831,3.427481,9.030535,-0.465649,-0.244874,-0.972904,-0.081787
832,3.549618,8.809160,-1.961832,-0.235108,-0.962650,-0.067383
833,2.748092,9.000000,-6.870229,-0.215577,-0.923343,-0.060547
834,5.954198,8.274809,-6.396946,-0.213136,-0.986332,-0.063965
835,5.427480,6.816794,-8.816793,-0.205323,-0.990726,-0.041748
836,3.175573,5.442748,-14.366411,-0.222901,-0.990482,-0.064698
837,6.717557,2.740458,-11.694656,-0.196778,-1.040775,-0.071778
838,6.511450,1.358779,-8.824428,-0.190919,-1.008549,-0.069092
839,4.358778,2.137405,-8.229008,-0.186036,-0.982426,-0.052490
840,3.839695,0.282443,-12.870229,-0.202882,-0.991215,-0.093018
841,4.068702,-3.320611,-4.213740,-0.180421,-1.055668,-0.067383
842,-1.061069,-8.595420,-2.557252,-0.184571,-0.985111,-0.071045
843,0.893130,-8.396947,-2.198473,-0.221681,-0.979984,-0.095703
844,1.167939,-8.099237,-2.412214,-0.256837,-0.965580,-0.108887
845,0.519084,-8.641221,0.229008,-0.246095,-0.974369,-0.112305
846,-0.786260,-7.786259,1.053435,-0.226075,-0.947269,-0.145020
847,-1.229008,-6.984732,-1.534351,-0.215577,-0.924564,-0.147461
848,3.938931,-2.564885,-8.961832,-0.168702,-0.902591,-0.117432
849,3.778626,-2.557252,-9.145038,-0.143555,-0.915042,-0.114991
850,3.519084,-3.244275,-7.312978,-0.132325,-0.942386,-0.108399
851,2.801527,-4.480916,-4.801526,-0.132081,-0.947025,-0.108155
852,2.580153,-5.717557,-3.122137,-0.121338,-0.966556,-0.087891
853,2.801527,-11.167939,-5.282443,-0.146973,-0.963871,-0.076660
854,3.496183,-12.671755,-6.427481,-0.142579,-0.970951,-0.069092
855,4.587786,-14.030534,-7.778626,-0.145264,-0.959232,-0.068848
856,5.312977,-15.198472,-9.419848,-0.145997,-0.953617,-0.052979
857,6.778626,-16.793893,-11.030534,-0.145508,-0.950199,-0.060059
858,11.358779,-21.282442,-15.335877,-0.152344,-0.959720,-0.061768
859,11.793892,-22.351145,-17.251909,-0.165528,-0.968021,-0.065674
860,12.450381,-22.992367,-18.305344,-0.171876,-0.976566,-0.052490
861,13.160305,-23.091602,-19.290076,-0.172364,-0.964359,-0.058350
862,13.679389,-22.748090,-19.786259,-0.165528,-0.951420,-0.055908
863,14.709924,-21.244274,-15.633587,-0.145264,-0.944828,-0.049561
864,13.809160,-20.763358,-12.748091,-0.150635,-0.946537,-0.053467
865,13.633588,-20.061070,-10.625955,-0.148682,-0.939457,-0.045166
866,13.709924,-19.572518,-8.923664,-0.147706,-0.950931,-0.047363
867,12.931297,-19.603054,-7.900763,-0.146973,-0.959476,-0.030518
868,11.396947,-20.229007,-8.549618,-0.168214,-0.982670,-0.028320
869,10.938931,-20.137406,-7.557252,-0.173096,-0.974613,-0.024902
870,10.549619,-20.213741,-6.725190,-0.164796,-0.967777,-0.021240
871,10.343511,-19.885496,-6.015267,-0.169190,-0.968265,-0.016113
872,10.251908,-20.114504,-5.381679,-0.171876,-0.980961,-0.022461
873,10.198473,-20.832061,-5.824428,-0.180176,-0.977787,-0.026611
874,10.526717,-21.213741,-6.740458,-0.182618,-0.972416,-0.018799
875,10.648855,-22.007633,-7.374045,-0.168702,-0.968998,-0.007324
876,11.061069,-22.419846,-7.572519,-0.157227,-0.969974,-0.011475
877,11.412213,-23.145038,-7.480916,-0.153321,-0.974857,0.000000
878,10.931297,-25.343511,-8.076336,-0.212891,-0.993412,-0.012940
879,11.175572,-25.076336,-9.770992,-0.223145,-0.997806,-0.020508
880,11.503816,-24.564886,-12.213740,-0.233888,-0.996342,-0.023438
881,12.473283,-24.190839,-13.419847,-0.218751,-0.992191,-0.035889
882,12.259541,-24.167938,-15.763359,-0.219727,-0.982670,-0.028565
883,13.694656,-23.145038,-16.534351,-0.189210,-0.994877,-0.004639
884,13.000000,-23.679390,-16.511449,-0.188721,-1.023441,-0.005127
885,12.519083,-24.061069,-16.763359,-0.198487,-1.036625,0.003418
886,11.351144,-24.419847,-17.549618,-0.196778,-1.035648,-0.000488
887,10.862595,-24.839695,-17.473282,-0.198243,-1.018558,0.002441
888,7.557252,-24.900762,-13.068703,-0.182862,-0.996097,0.000977
889,6.969466,-24.137405,-12.076336,-0.187989,-0.991703,-0.009522
890,6.068702,-23.541983,-11.717557,-0.189454,-0.993900,-0.010254
891,5.885496,-22.274809,-11.419847,-0.209962,-1.005863,-0.014893
892,5.549618,-21.091602,-11.427480,-0.228028,-1.003178,-0.026367
893,2.717557,-13.885496,-11.526717,-0.255128,-1.014408,-0.033447
894,1.969466,-11.496183,-12.022900,-0.255860,-1.009769,-0.035401
895,1.160305,-8.679389,-11.992367,-0.250733,-1.002445,-0.033203
896,0.297710,-6.129771,-9.671755,-0.222901,-0.987552,-0.046387
897,-0.770992,-3.786259,-6.480916,-0.198731,-0.971439,-0.035645
898,-0.931298,-0.145038,0.740458,-0.168214,-0.950199,-0.031983
899,0.015267,-0.236641,-0.175573,-0.162110,-0.942630,-0.026611
900,1.404580,-0.160305,-1.755725,-0.166016,-0.943363,-0.016113
901,2.534351,-0.519084,-4.755725,-0.177735,-0.957523,-0.010254
902,3.923664,-0.694656,-9.610687,-0.170899,-0.968754,-0.007080
903,8.290076,-2.282443,-20.076335,-0.110108,-0.964359,0.030029
904,8.519084,-2.862595,-18.480917,-0.097657,-0.967777,0.031006
905,8.305343,-4.053435,-16.541984,-0.105225,-0.962406,0.026367
906,8.076336,-4.137405,-15.083969,-0.116211,-0.977787,0.031983
907,8.206107,-3.015267,-14.053435,-0.142335,-0.986332,0.039795
908,6.633588,1.916030,-14.854961,-0.174561,-1.021244,0.034424
909,5.641221,3.961832,-12.732824,-0.167969,-1.022221,0.037354
910,4.091603,5.816794,-9.404580,-0.151612,-1.034916,0.048340
911,2.076336,7.358778,-6.137404,-0.143067,-1.040531,0.053467
912,0.068702,8.770992,-2.236641,-0.136963,-1.043949,0.056885
913,-2.091603,9.908397,3.015267,-0.129639,-1.047123,0.057373
914,-6.381680,12.641221,10.656488,-0.115723,-1.033207,0.057862
915,-7.282442,12.374045,9.122137,-0.092286,-0.999515,0.067383
916,-7.954198,11.435115,9.816793,-0.062500,-0.982181,0.069824
917,-8.022901,9.908397,10.954198,-0.057129,-0.971195,0.069580
918,-7.473282,8.114504,11.435115,-0.057617,-0.961429,0.072266
919,-7.175572,6.160306,9.610687,-0.077149,-0.951908,0.062256
920,-4.877862,2.175573,3.564885,-0.107178,-0.933597,0.023926
921,-4.236641,1.961832,2.190840,-0.092286,-0.926273,0.031738
922,-3.465649,1.755725,-0.480916,-0.087891,-0.933353,0.034912
923,-2.160305,1.435115,-3.167939,-0.087647,-0.925296,0.028320
924,-1.305343,1.152672,-5.854962,-0.084473,-0.936527,0.028076
925,-0.595420,1.480916,-8.328244,-0.084717,-0.945804,0.026611
926,0.061069,4.488550,-9.977099,-0.126954,-1.000980,0.008789
927,-0.618321,6.229008,-9.160305,-0.121338,-0.994633,0.016113
928,-1.145038,7.969466,-6.664122,-0.124024,-0.986088,0.026856
929,-1.534351,10.091603,-3.938931,-0.120606,-0.992435,0.027344
930,-1.740458,11.923663,-0.809160,-0.116456,-0.990970,0.037354
931,-2.206107,13.206107,2.488550,-0.118653,-0.995121,0.036621
932,-6.427481,17.335879,9.068702,-0.126709,-1.031986,0.038574
933,-8.259541,18.213741,11.938932,-0.116700,-1.024662,0.040283
934,-9.106870,18.557250,14.244275,-0.102784,-1.012455,0.037110
935,-10.183207,18.725191,16.167939,-0.107666,-1.003422,0.035401
936,-10.832061,18.664122,17.045801,-0.109620,-0.998539,0.030762
937,-11.053435,17.312977,13.320610,-0.116944,-0.965091,0.019775
938,-10.633588,16.534351,10.870229,-0.124268,-0.963383,0.014648
939,-10.091603,15.877862,8.908396,-0.113770,-0.955570,0.017578
940,-9.557251,15.145038,6.908396,-0.121338,-0.959965,0.011475
941,-9.244275,14.442747,4.641222,-0.123291,-0.961429,0.022461
942,-6.946564,13.297709,2.633588,-0.131348,-0.964115,0.010986
943,-6.419848,13.068703,1.503817,-0.146485,-0.978031,0.010742
944,-5.595420,13.297709,-1.847328,-0.168702,-1.004642,0.013672
945,-5.083969,13.419847,-5.305343,-0.173340,-1.021244,0.025635
946,-4.374046,14.007633,-7.000000,-0.166016,-1.021244,0.034180
947,-4.687023,14.717557,-6.206107,-0.154053,-1.030766,0.024170
948,-10.183207,14.641221,4.122137,-0.114747,-1.026615,0.026611
949,-11.557252,14.381679,4.282442,-0.106690,-1.024418,0.029541
950,-12.236641,14.427480,5.236642,-0.107178,-1.013676,0.023682
951,-12.900763,13.900763,6.458016,-0.107666,-1.008305,0.014404
952,-13.190839,14.076336,7.687023,-0.113526,-1.000004,-0.003174
953,-14.335877,13.358778,11.328244,-0.136719,-0.948490,-0.028320
954,-13.610687,13.251908,11.618320,-0.143799,-0.933353,-0.031006
955,-12.427480,13.557252,10.236641,-0.154297,-0.920414,-0.037354
956,-10.931297,13.809160,8.282443,-0.143067,-0.920414,-0.014160
957,-8.938931,13.618320,7.137404,-0.149415,-0.920658,-0.016357
958,-5.511450,13.297709,3.671756,-0.150147,-0.971927,-0.011475
959,-4.221374,13.419847,1.312977,-0.166016,-0.976810,-0.018555
960,-3.366412,14.061069,0.045802,-0.158692,-0.990482,-0.016113
961,-3.038168,14.717557,-1.000000,-0.163087,-0.988529,-0.020508
962,-2.656489,15.763359,-1.931298,-0.163087,-0.990482,-0.016846
963,-3.847328,18.480917,2.274809,-0.137208,-0.984623,-0.036865
964,-4.053435,18.816794,3.809160,-0.129395,-0.986576,-0.036133
965,-4.541984,18.946566,4.038168,-0.133301,-0.979984,-0.022949
966,-4.374046,18.877862,3.351145,-0.129883,-0.987064,-0.031006
967,-4.847328,18.320609,3.229008,-0.124268,-0.988041,-0.047363
968,-7.458015,16.877863,6.000000,-0.147706,-0.979740,-0.029053
969,-7.465649,16.358778,4.244274,-0.150635,-0.992679,-0.021973
970,-7.061068,15.824428,2.664122,-0.155030,-0.991703,-0.025391
971,-7.114504,15.282442,1.290076,-0.147461,-0.993412,-0.019043
972,-7.465649,14.549619,0.625954,-0.126709,-0.981693,-0.015381
973,-8.167939,10.870229,1.633588,-0.109620,-0.978519,-0.021240
974,-8.213740,10.160305,2.778626,-0.128663,-0.962162,-0.019775
975,-7.885496,10.083969,1.824427,-0.133057,-0.932132,-0.035401
976,-6.908396,9.687023,2.038168,-0.117920,-0.931156,-0.024170
977,-5.557252,9.183206,2.732824,-0.112061,-0.929691,-0.031738
978,-4.465649,8.526717,3.656489,-0.101807,-0.923832,-0.023193
979,-1.862595,3.763359,4.106870,-0.111573,-0.969242,-0.016113
980,-1.290076,2.778626,2.908397,-0.128174,-0.978763,-0.022217
981,-1.374046,1.923664,1.916030,-0.156006,-0.989017,-0.032959
982,-1.152672,0.992366,1.610687,-0.149659,-0.981937,-0.020752
983,-1.328244,0.763359,3.007634,-0.153809,-0.983402,-0.024902
984,-1.343511,0.954198,4.664122,-0.164307,-0.982670,-0.016113
985,-0.832061,2.122137,4.267176,-0.194825,-1.024906,-0.010742
986,-1.053435,2.740458,3.305344,-0.192384,-1.023197,-0.014648
987,-1.496183,3.496183,3.625954,-0.185792,-1.020268,-0.022705
988,-2.312977,4.030534,5.335878,-0.161378,-1.010258,-0.012207
989,-3.007634,4.083969,7.969466,-0.147461,-0.998783,-0.017334
990,-3.427481,3.916030,10.213740,-0.145264,-0.988773,-0.014648
991,-2.519084,0.435115,12.587787,-0.121827,-0.964115,-0.008301
992,-1.679389,-0.916030,11.274808,-0.140137,-0.964847,-0.012451
993,-0.885496,-1.679389,9.755725,-0.147217,-0.971195,-0.022949
994,-0.427481,-2.312977,8.068702,-0.162598,-0.980717,-0.023438
995,-0.076336,-2.786260,6.167939,-0.166016,-0.985355,-0.005371
996,-2.702290,-1.641221,0.687023,-0.187745,-0.994388,-0.002441
997,-3.641221,-0.610687,0.770992,-0.188233,-0.999515,-0.009766
998,-4.083969,0.106870,1.816794,-0.185548,-1.004642,-0.027344
999,-4.564886,0.717557,3.312977,-0.187012,-1.001469,-0.015137
1000,-4.984733,1.816794,4.809160,-0.199219,-1.001957,-0.034424
1001,-5.198474,2.977099,4.801526,-0.197266,-0.986332,-0.030274
1002,-3.755725,4.465649,4.160305,-0.163575,-0.981205,-0.011963
1003,-3.312977,4.297710,3.290076,-0.162842,-0.992679,0.000977
1004,-3.312977,3.221374,3.022901,-0.153809,-1.022465,0.003662
1005,-3.870229,1.900763,1.885496,-0.143555,-1.041019,0.016602
1006,-4.473282,0.412214,1.007634,-0.132325,-1.052250,0.022217
1007,-5.526718,-1.717557,0.190840,-0.137208,-1.055668,0.022217
1008,-7.290076,-7.381679,0.587786,-0.128663,-1.030521,0.015625
1009,-7.175572,-8.419847,0.343511,-0.135010,-1.013676,0.023193
1010,-7.221374,-9.396947,-0.572519,-0.138917,-1.007816,0.001953
1011,-7.442748,-9.786259,-0.854962,-0.157960,-1.014164,-0.010986
1012,-7.198474,-10.610687,-1.198473,-0.172608,-1.004398,-0.017090
1013,-7.122137,-10.603053,-4.511450,-0.198243,-0.984623,-0.027344
1014,-6.854962,-9.748091,-5.557252,-0.203614,-0.975101,-0.033203
1015,-6.488549,-8.519084,-6.274809,-0.200684,-0.969974,-0.034424
1016,-5.862595,-7.167939,-5.900763,-0.206055,-0.969974,-0.035645
1017,-5.167939,-5.908397,-5.969466,-0.204591,-0.955814,-0.035645
1018,-1.717557,-1.015267,-3.221374,-0.185303,-0.958500,-0.033203
1019,-0.946565,0.244275,-3.099237,-0.193360,-0.968021,-0.029053
1020,-0.251908,1.641221,-3.000000,-0.194337,-0.968265,-0.034180
1021,0.274809,3.030534,-3.106870,-0.191651,-0.971439,-0.038574
1022,0.412214,4.244274,-2.404580,-0.182130,-0.983646,-0.035645
1023,-1.015267,6.404580,5.030534,-0.156495,-0.974613,-0.035156
1024,-0.938931,6.572519,5.511450,-0.160889,-0.972904,-0.050049
1025,-0.290076,6.656488,5.259542,-0.156495,-0.964359,-0.036865
1026,0.244275,6.633588,4.580152,-0.143067,-0.954593,-0.037598
1027,0.603053,6.068702,3.374046,-0.143067,-0.966556,-0.033203
1028,0.557252,5.099236,2.442748,-0.134522,-0.972416,-0.029785
1029,1.564885,-0.519084,0.694656,-0.136475,-0.981449,-0.015625
1030,2.511450,-1.274809,-2.007634,-0.135499,-0.989750,-0.013428
1031,3.648855,-2.122137,-5.160305,-0.138917,-0.990970,-0.016357
1032,4.564886,-2.213740,-7.664122,-0.143311,-0.978031,-0.013672
1033,5.480916,-2.343511,-9.305344,-0.157715,-0.967533,-0.011963
1034,5.870229,-1.175572,-8.839695,-0.171143,-0.998539,-0.017090
1035,5.167939,-0.068702,-8.076336,-0.171387,-0.993900,-0.027588
1036,3.954198,0.564886,-6.129771,-0.166016,-0.992191,-0.020264
1037,3.312977,1.572519,-3.244275,-0.163087,-0.990970,-0.004883
1038,2.534351,2.801527,-0.809160,-0.157227,-0.987797,-0.034668
1039,0.297710,6.809160,5.198474,-0.166505,-0.986088,-0.037354
1040,0.099237,7.778626,8.641221,-0.158936,-1.001224,-0.025879
1041,-0.625954,8.114504,10.595420,-0.164551,-0.984134,-0.029297
1042,-1.534351,8.595420,9.473283,-0.151368,-0.971439,-0.036865
1043,-1.625954,8.824428,8.419847,-0.141846,-0.972660,-0.027344
1044,-1.656489,8.427481,8.389313,-0.132813,-0.982181,-0.030274
1045,-1.679389,7.442748,2.076336,-0.156006,-0.971195,-0.034180
1046,-1.755725,6.648854,1.595420,-0.152100,-0.980228,-0.031738
1047,-1.931298,6.374046,1.541985,-0.149170,-0.971683,-0.035401
1048,-2.198473,5.984733,1.175572,-0.146241,-0.968509,-0.033447
1049,-2.122137,5.664122,-0.465649,-0.154786,-0.967045,-0.030029
1050,-0.679389,3.732824,-4.404580,-0.120362,-0.981205,-0.034912
1051,-0.877863,3.167939,-4.427481,-0.130860,-0.975834,-0.040527
1052,-0.832061,2.549618,-4.061069,-0.128907,-0.985355,-0.035889
1053,-1.297710,1.916030,-3.572519,-0.130616,-0.999760,-0.034668
1054,-1.167939,1.954198,-3.503817,-0.143799,-1.007816,-0.018066
1055,-3.916030,0.442748,1.282443,-0.138428,-1.016117,-0.023926
1056,-4.862596,0.435115,3.221374,-0.143067,-1.006596,-0.025879
1057,-5.030534,0.076336,4.938932,-0.141358,-1.000004,-0.025147
1058,-5.236642,-0.450382,5.702290,-0.142823,-0.985355,-0.033692
1059,-4.862596,-0.984733,5.412214,-0.149903,-0.978519,-0.043213
1060,-0.625954,0.045802,1.748092,-0.173829,-0.946048,-0.057617
1061,0.076336,0.328244,3.267176,-0.177735,-0.940921,-0.047119
1062,-0.129771,0.374046,3.625954,-0.170899,-0.942142,-0.051026
1063,0.435115,0.717557,3.076336,-0.170899,-0.945316,-0.053467
1064,1.236641,1.274809,0.450382,-0.186280,-0.953129,-0.046875
1065,2.526718,1.809160,-1.687023,-0.181885,-0.964359,-0.045410
1066,3.595420,4.770992,0.244275,-0.178467,-0.968998,-0.043213
1067,3.877862,5.641221,1.435115,-0.174805,-0.966068,-0.046387
1068,4.221374,6.259542,1.885496,-0.173340,-0.982181,-0.033936
1069,4.923664,6.503817,1.435115,-0.183106,-0.988285,-0.035889
1070,5.687022,6.870229,-0.221374,-0.183839,-0.998051,-0.018555
1071,6.198473,7.206106,-2.114504,-0.180909,-1.000980,-0.030274
1072,5.358779,5.984733,-3.992366,-0.144288,-1.019291,-0.008301
1073,4.603054,4.977099,-2.725191,-0.135499,-1.017582,-0.017334
1074,3.541985,3.832061,-2.061069,-0.131592,-1.012455,-0.009277
1075,2.664122,3.007634,-1.778626,-0.133301,-1.001957,-0.006836
1076,2.328244,2.458015,-1.511450,-0.136963,-1.000492,-0.018066
1077,1.213740,0.206107,3.458015,-0.162598,-0.977054,-0.022217
1078,1.908397,0.206107,1.755725,-0.177491,-0.980961,-0.033936
1079,3.152672,0.725191,-0.030534,-0.185792,-0.978763,-0.026856
1080,3.664122,1.381679,-1.213740,-0.193116,-0.983402,-0.033203
1081,4.335878,2.091603,-0.755725,-0.182374,-0.982914,-0.028565
1082,4.778626,2.862595,0.465649,-0.193360,-0.973392,-0.025635
1083,4.015267,5.549618,0.045802,-0.172608,-1.000248,-0.022461
1084,3.778626,6.000000,-0.992366,-0.158936,-1.001469,-0.007080
1085,3.396947,6.305344,-0.587786,-0.150635,-1.013187,-0.016357
1086,2.770992,6.419848,1.114504,-0.137452,-1.015873,-0.009277
1087,1.648855,5.946565,3.152672,-0.135254,-1.026127,-0.012451
1088,0.557252,5.664122,4.190840,-0.148438,-1.034672,0.002930
1089,-0.748092,4.564886,3.358779,-0.154786,-0.997806,-0.007080
1090,-0.450382,4.030534,2.297710,-0.160157,-0.991215,-0.009277
1091,0.145038,4.435114,1.335878,-0.158204,-0.984134,-0.013916
1092,0.832061,4.190840,-0.022901,-0.152833,-0.975101,-0.015625
1093,1.885496,4.114504,-1.206107,-0.154542,-0.960941,-0.025391
1094,2.312977,3.717557,-2.641221,-0.158204,-0.967289,-0.019043
1095,3.816794,4.045801,-6.755725,-0.180909,-0.974125,-0.031738
1096,3.618321,4.419847,-5.870229,-0.167237,-0.978519,-0.018066
1097,3.099237,4.839694,-4.259542,-0.148926,-0.966556,-0.025391
1098,3.274809,5.175572,-2.786260,-0.162598,-0.973636,-0.016113
1099,2.793893,5.534351,-1.816794,-0.157715,-0.979496,-0.022217
1100,1.587786,6.839695,0.694656,-0.163819,-0.995365,-0.006836
1101,0.793893,7.297710,2.351145,-0.164796,-0.985599,-0.012451
1102,0.748092,7.496183,3.145038,-0.166505,-0.986088,-0.013184
1103,0.763359,7.931298,3.732824,-0.155518,-0.979740,-0.002441
1104,1.229008,8.022901,4.129771,-0.147950,-0.975101,0.008789
1105,1.206107,7.923664,3.847328,-0.156495,-0.977543,0.001465
1106,0.312977,6.488549,2.526718,-0.156983,-1.007084,0.007324
1107,-0.343511,6.290076,1.580153,-0.165528,-1.005619,0.015381
1108,-0.572519,6.625954,0.854962,-0.177003,-1.002445,0.020264
1109,-0.236641,6.549618,0.038168,-0.166749,-0.997318,0.009033
1110,-0.076336,6.832061,-0.572519,-0.159424,-0.986820,0.010254
1111,0.419847,6.778626,-0.954198,-0.150391,-0.982670,-0.010742
1112,-0.374046,6.343512,-1.068702,-0.142823,-0.978031,-0.027832
1113,-0.587786,6.030534,-0.328244,-0.135254,-0.978763,-0.014893
1114,-1.022901,5.847328,0.969466,-0.137940,-0.969974,-0.020020
1115,-1.328244,5.748092,2.488550,-0.136231,-0.968265,-0.020508
1116,-1.030534,5.755725,3.160305,-0.142090,-0.961918,-0.024902
1117,-0.007634,4.938932,4.206106,-0.123047,-0.979008,-0.003906
1118,-0.076336,3.961832,4.358778,-0.116456,-0.984379,-0.004150
1119,-0.427481,3.740458,4.030534,-0.135987,-0.980228,-0.006104
1120,-0.274809,3.587786,3.557252,-0.144776,-0.993656,-0.001953
1121,-0.610687,3.259542,4.038168,-0.146729,-0.982426,-0.007813
1122,-1.221374,3.725191,7.511450,-0.153809,-0.979984,-0.008301
1123,-1.122137,3.778626,7.702290,-0.154053,-0.979984,-0.028320
1124,-1.000000,4.099237,8.396947,-0.159180,-0.979252,-0.030274
1125,-0.801527,3.748091,8.847328,-0.178467,-0.971439,-0.035889
1126,-0.221374,4.236641,8.244275,-0.187257,-0.960941,-0.050781
1127,2.083969,5.503816,2.496183,-0.136231,-0.960209,-0.025391
1128,2.595420,4.687023,2.137405,-0.136475,-0.969974,-0.026123
1129,2.687023,4.145038,1.145038,-0.138184,-0.973636,-0.025635
1130,2.778626,3.755725,0.374046,-0.138917,-0.979740,-0.022461
1131,2.702290,3.099237,-0.129771,-0.148926,-0.978519,-0.002197
1132,2.580153,2.725191,-1.206107,-0.148438,-0.983646,-0.007080
1133,2.389313,3.625954,-1.496183,-0.176026,-0.990482,-0.007568
1134,2.709924,3.473282,-1.885496,-0.166749,-0.989017,-0.006836
1135,2.740458,3.786259,-2.122137,-0.158204,-0.991459,-0.010254
1136,2.801527,3.419847,-2.458015,-0.157471,-0.992924,0.001709
1137,2.877863,3.198473,-2.435115,-0.151368,-0.993168,0.003174
1138,2.908397,3.137405,-2.328244,-0.145264,-0.991947,0.005859
1139,0.519084,1.404580,-1.625954,-0.159913,-1.012211,-0.009522
1140,-0.129771,1.366412,-1.656489,-0.161866,-1.016850,-0.005127
1141,-1.610687,0.870229,-0.412214,-0.150879,-1.010258,-0.010498
1142,-3.015267,0.496183,1.221374,-0.154786,-1.003666,-0.025635
1143,-3.908397,0.809160,3.320611,-0.153077,-0.991215,-0.009033
1144,-3.885496,-1.404580,2.885496,-0.149415,-1.005131,-0.008057
1145,-3.938931,-2.251908,0.923664,-0.164307,-1.006351,0.001709
1146,-3.992366,-2.343511,-1.045802,-0.176758,-1.000980,-0.005859
1147,-3.549618,-2.267176,-1.587786,-0.180176,-0.994633,-0.001221
1148,-3.351145,-2.641221,-0.977099,-0.169678,-1.008549,-0.011719
1149,-3.480916,-3.007634,-0.274809,-0.185303,-0.987552,-0.010010
1150,-3.145038,-2.519084,-1.435115,-0.187745,-0.980717,-0.017578
1151,-2.488550,-2.007634,-1.786260,-0.184815,-0.979496,-0.016602
1152,-2.122137,-1.290076,-1.083969,-0.187012,-0.977054,-0.023438
1153,-2.885496,-1.305343,0.511450,-0.191163,-0.971439,-0.031006
1154,-1.916030,-0.923664,1.984733,-0.155030,-0.960697,0.007324
1155,-0.664122,1.160305,-0.748092,-0.150391,-0.966068,-0.023438
1156,-0.267176,0.916030,2.801527,-0.156251,-1.011234,-0.028809
1157,-2.832061,-0.671756,6.961832,-0.163575,-1.008305,-0.019043
1158,-4.740458,-0.679389,8.435115,-0.156739,-1.002933,-0.011231
1159,-3.083969,-1.045802,0.793893,-0.145020,-0.985111,-0.017334
1160,-2.511450,-1.427481,0.709924,-0.151124,-0.983402,-0.009522
1161,-2.702290,-1.496183,0.595420,-0.158936,-0.983646,-0.000244
1162,-2.961832,-1.488550,-0.641221,-0.156739,-0.979984,-0.008545
1163,-3.343511,-1.519084,-1.473282,-0.152588,-0.987308,0.003662
1164,-1.778626,-0.389313,-5.221374,-0.151856,-0.966068,-0.023193
1165,-4.282442,1.961832,-5.885496,-0.145753,-0.945072,0.008789
1166,0.816794,2.129771,-16.526718,-0.200928,-0.907962,-0.086426
1167,1.679389,-1.190840,-5.251908,-0.122559,-1.025883,-0.050293
1168,-1.297710,-0.442748,-2.847328,-0.104737,-0.971927,-0.029541
1169,-2.206107,-1.358779,2.335878,-0.111817,-0.975345,0.012451
1170,-1.198473,-2.022901,2.954198,-0.078614,-1.003178,0.008545
1171,-1.419847,-3.419847,3.992366,-0.077881,-1.005375,0.013428
1172,-3.045802,-4.725191,5.839694,-0.078369,-1.008549,0.020020
1173,-4.358778,-6.328244,7.282442,-0.101563,-1.007572,0.016602
1174,-4.702290,-7.396946,7.106870,-0.162842,-0.991703,-0.014893
1175,-4.175573,-7.740458,4.687023,-0.165040,-0.957279,-0.004639
1176,-3.167939,-8.000000,4.862596,-0.152344,-0.966312,-0.009277
1177,-2.175573,-7.175572,3.374046,-0.172608,-0.970463,-0.001465
1178,-0.938931,-6.748092,0.465649,-0.180665,-0.971439,-0.018066
1179,-0.007634,-4.954198,-3.038168,-0.193360,-0.971195,-0.028076
1180,0.198473,-3.717557,-3.053435,-0.200928,-0.960697,-0.029297
1181,0.206107,-2.480916,-3.190840,-0.186524,-0.959720,-0.024902
1182,0.274809,-1.076336,-2.564885,-0.182374,-0.965824,-0.022949
1183,-0.305343,-0.122137,-1.167939,-0.175049,-0.967777,-0.043701
1184,-0.358779,3.900763,-0.893130,-0.193116,-0.976322,-0.026123
1185,-0.824427,4.656488,-0.877863,-0.179200,-0.979252,-0.025635
1186,-1.572519,5.076336,0.290076,-0.162110,-0.984134,-0.024658
1187,-2.412214,5.198474,2.770992,-0.164796,-0.981449,-0.018066
1188,-3.152672,5.396946,4.770992,-0.168946,-0.980717,-0.015137
1189,-3.015267,6.183206,8.702290,-0.178956,-0.987064,-0.019775
1190,-2.954198,6.664122,8.580153,-0.189454,-0.984134,-0.009033
1191,-2.748092,7.053435,7.374045,-0.199952,-0.977054,-0.006348
1192,-2.320611,7.580152,6.213740,-0.185548,-0.980228,-0.018066
1193,-1.893130,8.053435,5.961832,-0.168458,-0.967777,-0.025391
1194,-2.526718,7.274810,13.511450,-0.151856,-0.948490,-0.026856
1195,-2.862595,7.412213,19.198473,-0.174805,-0.951420,-0.029541
1196,-2.633588,8.320611,20.770993,-0.189698,-0.975834,-0.033203
1197,-2.320611,8.755724,19.816793,-0.199708,-0.984134,-0.033692
1198,-2.076336,9.534351,17.312977,-0.199464,-0.998295,-0.043457
1199,-1.335878,9.259541,15.702291,-0.158204,-0.993412,-0.030518
1200,-1.290076,8.748092,14.320611,-0.172852,-1.003422,-0.019531
1201,-1.015267,8.366412,12.587787,-0.171143,-0.998539,-0.031494
1202,-0.839695,8.374045,10.251908,-0.178712,-0.989750,-0.025391
1203,0.137405,8.183206,8.396947,-0.180421,-0.977787,-0.022705
1204,2.824427,6.916030,5.893130,-0.170899,-0.979496,-0.034424
1205,2.946565,6.946564,4.923664,-0.175538,-0.962650,-0.021240
1206,3.519084,6.763358,3.412214,-0.163819,-0.963871,-0.034424
1207,4.030534,6.679389,1.732824,-0.156006,-0.957767,-0.026611
1208,4.694656,6.396946,-0.091603,-0.147461,-0.970218,-0.025635
1209,4.770992,5.725190,-1.603053,-0.154297,-0.978275,-0.011963
1210,3.152672,3.625954,-4.687023,-0.172608,-0.990970,-0.018311
1211,2.748092,3.748091,-5.900763,-0.175782,-0.995609,-0.012451
1212,2.916031,3.870229,-6.137404,-0.186524,-0.994388,-0.012451
1213,2.404580,3.862595,-6.687022,-0.177979,-1.002933,0.001465
1214,2.061069,4.145038,-7.664122,-0.187257,-0.999027,-0.010742
1215,1.992366,4.335878,-7.343511,-0.178712,-1.005131,0.004639
1216,0.167939,5.007633,-2.984733,-0.169678,-0.997806,-0.012451
1217,0.061069,5.236642,-0.992366,-0.173340,-0.994633,-0.007813
1218,-0.511450,4.877862,1.030534,-0.176270,-0.983402,-0.008545
1219,-0.702290,5.122137,2.374046,-0.163087,-0.983158,-0.016846
1220,-0.709924,5.526718,3.480916,-0.174317,-0.987797,-0.019775
1221,-0.572519,7.129771,-0.374046,-0.168702,-0.967777,-0.033936
1222,-0.167939,7.488549,0.435115,-0.164307,-0.958500,-0.031006
1223,0.068702,7.564885,1.587786,-0.156006,-0.946537,-0.037354
1224,0.862595,7.389313,2.549618,-0.151368,-0.944584,-0.028809
1225,1.809160,7.076336,1.854962,-0.143067,-0.953617,-0.031983
1226,2.816794,6.793893,0.435115,-0.142090,-0.956791,-0.032715
1227,3.839695,3.152672,-3.755725,-0.140626,-0.993656,-0.008545
1228,3.190840,2.557252,-5.190840,-0.153565,-0.995853,-0.001709
1229,3.129771,1.877863,-6.114504,-0.148926,-0.990970,0.010986
1230,2.778626,0.923664,-5.709924,-0.144776,-0.996342,-0.003906
1231,2.175573,0.396947,-5.809160,-0.147950,-0.997318,0.013184
1232,2.038168,-0.740458,-6.030534,-0.135499,-0.989994,0.004150
1233,1.709924,-1.473282,-7.320610,-0.167725,-0.971195,-0.007080
1234,2.145038,-1.213740,-6.717557,-0.161622,-0.964359,-0.010010
1235,2.297710,-1.137404,-6.053435,-0.170655,-0.970463,-0.012695
1236,2.213740,-0.312977,-5.877862,-0.167237,-0.968754,-0.018799
1237,2.541985,0.671756,-4.572519,-0.173340,-0.973881,-0.018799
1238,0.931298,4.076336,-0.488550,-0.191651,-0.977054,-0.028809
1239,0.427481,5.091603,-0.122137,-0.180909,-0.972172,-0.038330
1240,0.022901,6.259542,0.221374,-0.180665,-0.967289,-0.030518
1241,0.030534,6.770992,1.045802,-0.170655,-0.970951,-0.027344
1242,-0.053435,7.251908,1.961832,-0.174317,-0.968509,-0.028076
1243,-0.145038,8.045801,2.694656,-0.178712,-0.974369,-0.025147
1244,-1.435115,8.992367,4.786260,-0.166016,-0.984379,-0.010498
1245,-1.664122,8.870228,5.198474,-0.179932,-0.990970,-0.013916
1246,-2.152672,8.381679,5.351145,-0.172608,-0.987064,-0.012940
1247,-2.519084,7.961832,6.053435,-0.172120,-0.989994,-0.018066
1248,-2.931298,7.877862,7.488549,-0.173829,-0.983402,-0.020996
1249,-4.083969,6.847328,6.221374,-0.171876,-0.980472,-0.031738
1250,-3.862595,6.755725,5.641221,-0.172120,-0.980717,-0.026123
1251,-3.725191,6.442748,5.236642,-0.175782,-0.981205,-0.014648
1252,-3.633588,5.847328,5.007633,-0.187012,-0.978519,-0.015137
1253,-3.396947,5.877862,4.816794,-0.189942,-0.984379,-0.026123
1254,-2.091603,5.007633,1.290076,-0.177003,-0.986088,-0.016357
1255,-1.427481,4.832061,1.381679,-0.161378,-0.984623,-0.016846
1256,-0.877863,4.618320,0.954198,-0.165772,-0.998783,-0.012695
1257,-0.854962,4.045801,-0.351145,-0.152588,-1.001224,-0.004639
1258,-1.389313,3.442748,-0.786260,-0.145508,-1.005863,-0.016846
1259,-2.244275,1.480916,-2.198473,-0.149903,-0.986820,-0.013916
1260,-1.748092,1.045802,-3.160305,-0.147706,-0.979252,-0.020508
1261,-1.648855,0.480916,-3.473282,-0.147950,-0.984867,-0.024902
1262,-1.473282,0.305343,-3.496183,-0.150879,-0.976566,-0.017578
1263,-1.312977,-0.053435,-2.648855,-0.149903,-0.969974,-0.024902
1264,0.519084,1.137404,2.908397,-0.184327,-0.974369,-0.031494
1265,1.106870,1.618321,2.717557,-0.195313,-0.979740,-0.031983
1266,1.587786,2.335878,1.618321,-0.202149,-0.976810,-0.029785
1267,2.030534,3.335878,0.931298,-0.204346,-0.979008,-0.037598
1268,2.641221,4.442748,0.763359,-0.209229,-0.982426,-0.036621
1269,2.763359,5.564885,1.427481,-0.196534,-0.993656,-0.026367
1270,2.053435,7.801527,1.496183,-0.176514,-1.001469,-0.018311
1271,1.854962,8.091603,1.862595,-0.165284,-0.999760,-0.009522
1272,1.984733,8.374045,2.625954,-0.161378,-1.009281,-0.015137
1273,1.679389,7.938931,2.618321,-0.166016,-1.010502,-0.009766
1274,1.480916,8.030534,2.083969,-0.164307,-1.014652,-0.002441
1275,0.984733,7.793893,2.465649,-0.157227,-1.013432,0.005371
1276,-0.564886,4.282442,4.679389,-0.149659,-1.019291,0.020020
1277,-0.770992,3.664122,1.870229,-0.171387,-1.030766,0.020508
1278,-0.755725,2.954198,-0.305343,-0.170411,-1.012943,0.018555
1279,-0.931298,2.480916,-2.045802,-0.161378,-1.015629,0.020996
1280,-1.030534,2.068702,-1.839695,-0.169678,-1.008793,0.010254
1281,-1.282443,2.335878,-2.404580,-0.166260,-1.018803,0.000488
1282,-1.519084,3.816794,-4.847328,-0.171387,-0.985844,-0.027344
1283,-1.312977,4.519084,-4.519084,-0.162354,-0.984379,-0.014404
1284,-1.870229,4.595420,-3.519084,-0.149659,-0.979496,-0.031494
1285,-2.412214,4.664122,-1.480916,-0.144288,-0.970951,-0.026611
1286,-2.450382,4.083969,2.038168,-0.131104,-0.974857,-0.025879
1287,-3.251908,3.030534,6.832061,-0.177979,-0.986576,-0.029053
1288,-3.320611,3.259542,6.992366,-0.185792,-0.977299,-0.027100
1289,-3.091603,2.992366,9.358779,-0.188477,-0.971439,-0.029785
1290,-3.480916,3.038168,9.221374,-0.192384,-0.953617,-0.013428
1291,-2.572519,3.213740,11.053435,-0.179932,-0.974369,-0.022949
1292,-0.251908,4.572519,10.564885,-0.216065,-0.976078,-0.037598
1293,-0.786260,4.656488,10.114503,-0.223878,-0.993656,-0.019775
1294,-0.877863,5.190840,9.839695,-0.231202,-0.995609,-0.010254
1295,-0.900763,6.129771,9.725191,-0.213868,-1.014896,-0.010986
1296,-1.702290,5.809160,9.732824,-0.198975,-1.008793,-0.007324
1297,-5.038168,3.396947,11.786260,-0.131836,-0.975345,-0.005615
1298,-6.122138,1.450382,16.633587,-0.119629,-0.962650,-0.012695
1299,-6.580153,0.229008,22.793893,-0.115967,-0.952152,-0.004150
1300,-6.328244,-1.030534,26.488549,-0.144288,-0.954349,-0.017090
1301,-6.290076,-2.274809,24.427480,-0.163087,-0.959965,-0.018799
1302,-2.946565,-3.206107,10.916030,-0.181641,-0.964115,-0.014893
1303,-2.007634,-2.763359,7.572519,-0.209718,-0.951908,-0.032227
1304,-1.213740,-1.916030,4.358778,-0.215089,-0.940433,-0.023682
1305,-0.603053,-1.458015,2.564885,-0.208741,-0.937992,-0.022705
1306,-0.122137,-1.091603,3.145038,-0.187989,-0.937015,-0.025391
1307,0.328244,-0.183206,-2.015267,-0.226807,-0.974613,-0.009766
1308,1.900763,0.969466,-2.534351,-0.233399,-0.974125,-0.025391
1309,2.885496,3.305344,-10.564885,-0.248536,-0.942630,-0.032227
1310,2.740458,3.938931,-9.854961,-0.209962,-0.979496,-0.012451
1311,1.931298,3.809160,-6.557252,-0.189210,-0.968509,-0.022705
1312,2.656489,5.923664,-2.274809,-0.185303,-0.966556,-0.014893
1313,3.343511,7.526717,-1.938931,-0.188721,-0.946781,-0.012695
1314,-1.557252,9.854961,-11.389312,-0.195069,-0.909916,0.003174
1315,7.022900,9.335877,-7.152672,-0.195313,-1.005619,-0.013916
1316,5.938931,7.832061,-1.702290,-0.167481,-1.016117,-0.023926
1317,0.938931,8.160305,3.519084,-0.195313,-0.960209,-0.002441
1318,2.496183,8.725191,-0.015267,-0.200440,-0.953861,-0.007324
1319,4.992366,9.465648,-3.007634,-0.189698,-0.952396,-0.007568
1320,5.793893,9.679389,-5.351145,-0.182862,-0.959720,-0.004639
1321,6.007634,9.664123,-5.923664,-0.177735,-0.953861,-0.003906
1322,6.137404,9.450381,-5.366412,-0.162598,-0.963383,0.001953
1323,8.274809,9.992367,-6.129771,-0.160401,-0.968754,-0.005615
1324,8.442748,10.206107,-5.404580,-0.162354,-0.972660,-0.006348
1325,8.099237,9.877863,-2.969466,-0.145997,-0.974857,-0.003174
1326,6.946564,9.305344,-0.129771,-0.138672,-0.978275,-0.011719
1327,5.870229,8.709924,3.694656,-0.125977,-0.980717,0.000244
1328,3.633588,6.007634,11.007633,-0.137696,-0.991703,0.003906
1329,3.274809,5.038168,12.335877,-0.142090,-0.989017,-0.003418
1330,3.038168,5.374046,8.786260,-0.169190,-0.967533,-0.004150
1331,2.786260,5.511450,8.282443,-0.190430,-0.979496,0.016113
1332,2.320611,5.854962,10.549619,-0.205811,-0.989994,-0.003662
1333,1.358779,6.290076,12.038168,-0.199219,-0.975101,-0.006104
1334,2.511450,6.885496,9.190840,-0.173829,-0.956302,-0.008057
1335,3.648855,6.374046,8.045801,-0.170167,-0.957523,-0.005371
1336,4.129771,5.992366,6.740458,-0.181885,-0.961429,0.004639
1337,4.740458,6.198473,5.442748,-0.185059,-0.980717,0.011475
1338,5.274809,6.465649,5.007633,-0.193116,-0.995365,0.015137
1339,4.954198,6.595420,5.091603,-0.184327,-1.000492,0.019531
1340,3.160305,7.458015,1.480916,-0.184571,-1.005375,0.018066
1341,2.419847,7.725191,4.351145,-0.197266,-1.024906,0.031006
1342,1.503817,8.419847,7.511450,-0.199464,-1.016850,0.015869
1343,0.557252,9.335877,8.519084,-0.209229,-0.998051,0.005859
1344,-0.106870,10.007633,9.748091,-0.203370,-0.999760,0.013916
1345,-0.335878,10.167939,9.503816,-0.186768,-0.976078,0.017090
1346,1.748092,8.786260,7.519084,-0.162354,-0.944095,0.008057
1347,1.839695,8.389313,7.351146,-0.154786,-0.946293,0.020996
1348,2.404580,7.648855,9.022900,-0.139649,-0.946537,0.024902
1349,1.870229,6.740458,9.175572,-0.150879,-0.958011,0.023682
1350,1.786260,5.496183,8.519084,-0.153077,-0.972416,0.039307
1351,2.106870,4.900764,7.083969,-0.175049,-0.976810,0.027588
1352,-0.007634,4.480916,7.992366,-0.178712,-0.989750,0.032227
1353,-1.381679,4.969465,12.175572,-0.192139,-1.000492,0.029297
1354,-2.175573,5.763358,13.992366,-0.204591,-1.012211,0.027832
1355,-3.267176,7.801527,10.496183,-0.205567,-0.962162,0.044678
1356,0.038168,8.732825,11.305344,-0.222901,-0.985111,0.010742
1357,0.725191,7.916030,15.267175,-0.179932,-1.017338,-0.003418
1358,-2.641221,7.770992,22.755726,-0.184327,-0.962406,0.001709
1359,-2.015267,7.229007,23.099237,-0.179932,-0.969974,0.007080
1360,-0.969466,6.664122,23.549618,-0.180421,-0.971927,0.011231
1361,-0.526718,5.908397,23.633586,-0.182374,-0.972172,0.009522
1362,-0.778626,5.068702,22.366412,-0.186280,-0.984867,0.002930
1363,-0.106870,4.183206,8.229008,-0.228028,-0.982914,0.002930
1364,-0.038168,4.564886,5.122137,-0.233155,-0.962406,0.017578
1365,0.480916,5.129771,4.152672,-0.229493,-0.956058,0.011719
1366,0.580153,5.870229,4.717557,-0.222169,-0.954838,0.005859
1367,1.137404,5.206107,4.320610,-0.214112,-0.956058,0.003662
1368,1.480916,4.870229,3.610687,-0.199952,-0.960697,0.005615
1369,3.862595,4.610687,-2.519084,-0.220216,-0.946048,0.010498
1370,4.618320,5.389312,-1.045802,-0.226075,-0.994633,0.014404
1371,3.061069,5.160305,1.687023,-0.251710,-0.996097,0.015869
1372,1.625954,5.129771,3.572519,-0.246583,-1.010746,0.006348
1373,0.778626,5.916030,4.030534,-0.230470,-0.995609,0.016113
1374,0.625954,7.061068,5.465648,-0.226807,-0.989994,0.017334
1375,1.801527,6.900763,-4.473282,-0.220460,-0.932132,-0.018555
1376,2.931298,4.053435,1.511450,-0.179688,-1.021976,0.001953
1377,0.679389,2.977099,2.832061,-0.179200,-0.973392,0.006104
1378,-1.015267,1.885496,5.290076,-0.184327,-0.962650,0.017334
1379,-3.748091,1.175572,2.900763,-0.187989,-0.944095,0.027588
1380,-0.656489,-0.183206,3.038168,-0.218263,-0.968265,0.010254
1381,0.801527,2.732824,1.816794,-0.263185,-0.952396,-0.013916
1382,0.916030,2.045802,3.839695,-0.277589,-0.956302,-0.006836
1383,-0.946565,3.412214,1.908397,-0.257569,-0.923343,0.014404
1384,1.885496,3.427481,2.381679,-0.264161,-0.962650,-0.017334
1385,2.580153,3.969466,1.244275,-0.260987,-0.950199,-0.021484
1386,2.595420,4.519084,2.641221,-0.265138,-0.949222,0.000977
1387,2.236641,5.847328,5.137404,-0.258546,-0.952396,-0.010254
1388,2.870229,6.557252,3.885496,-0.260255,-0.953373,-0.002197
1389,3.106870,6.419848,3.862595,-0.258790,-0.946537,0.013428
1390,3.770992,6.625954,3.328244,-0.260499,-0.943607,0.004395
1391,3.549618,6.694656,3.694656,-0.261720,-0.959965,0.015625
1392,3.473282,7.358778,3.198473,-0.274903,-0.954105,0.010010
1393,2.931298,7.137404,2.870229,-0.230714,-0.978031,0.033936
1394,2.809160,6.396946,2.625954,-0.208497,-0.975345,0.031006
1395,2.190840,5.534351,2.801527,-0.197511,-0.985111,0.041748
1396,0.862595,4.541984,3.816794,-0.222169,-0.983402,0.030274
1397,0.099237,3.717557,4.900764,-0.237794,-0.972904,0.033936
1398,-0.267176,3.786259,5.122137,-0.242677,-0.966801,0.032227
1399,1.557252,4.000000,2.961832,-0.255372,-0.947025,0.014160
1400,2.282443,4.603054,1.908397,-0.264894,-0.934330,0.006104
1401,2.908397,4.709924,1.038168,-0.260011,-0.937015,0.009766
1402,3.717557,4.725191,-0.213740,-0.237306,-0.939701,0.007568
1403,4.000000,4.595420,-1.992366,-0.236817,-0.958011,0.004639
1404,5.198474,4.526718,-2.305344,-0.214845,-0.958988,0.015869
1405,2.435115,4.816794,3.549618,-0.237550,-0.950931,-0.003662
1406,1.541985,4.862596,6.618320,-0.243165,-0.951664,-0.010498
1407,1.190840,5.442748,7.442748,-0.239747,-0.946537,-0.004883
1408,1.000000,5.969466,7.961832,-0.233155,-0.947513,-0.004639
1409,1.435115,6.015267,7.496183,-0.224366,-0.949222,-0.009033
1410,1.587786,6.007634,7.961832,-0.223390,-0.948490,-0.004150
1411,0.877863,3.671756,10.847328,-0.216309,-0.956791,-0.005127
1412,1.244275,3.236641,10.732824,-0.221925,-0.963871,0.009033
1413,1.473282,2.931298,10.175572,-0.230714,-0.970218,0.011963
1414,1.679389,2.213740,10.343511,-0.232423,-0.973636,0.012940
1415,1.740458,2.083969,10.496183,-0.235352,-0.986088,0.006592
1416,1.503817,1.809160,9.809160,-0.241700,-0.974613,0.006836
1417,0.290076,3.106870,6.664122,-0.265870,-0.963871,0.005859
1418,0.587786,3.786259,4.641222,-0.261720,-0.955082,0.015137
1419,1.152672,3.984733,4.106870,-0.260255,-0.955814,0.011719
1420,1.885496,3.793893,4.099237,-0.262696,-0.953617,0.012207
1421,2.702290,4.297710,2.114504,-0.264894,-0.952884,0.006104
1422,3.175573,4.870229,0.076336,-0.263673,-0.960209,0.009277
1423,3.099237,6.297710,0.129771,-0.242677,-0.956791,0.024170
1424,3.389313,6.282443,-0.435115,-0.227784,-0.963138,0.023682
1425,4.000000,6.251908,-1.473282,-0.223878,-0.969242,0.025147
1426,4.679389,5.816794,-2.793893,-0.224366,-0.966556,0.026123
1427,4.717557,5.015267,-3.816794,-0.221925,-0.980472,0.023438
1428,3.877862,4.213740,-3.984733,-0.217530,-0.982426,0.032471
1429,1.206107,2.870229,-2.488550,-0.256104,-0.996097,0.037354
1430,1.358779,3.114504,-2.366412,-0.250489,-1.005375,0.023926
1431,0.984733,3.526718,-1.900763,-0.243653,-0.998783,0.032959
1432,0.816794,3.458015,-1.236641,-0.245606,-0.991215,0.030518
1433,0.267176,3.389313,0.129771,-0.239747,-0.986820,0.019043
1434,-0.099237,3.557252,0.748092,-0.242677,-0.966556,0.027832
1435,-0.694656,2.503817,3.832061,-0.224854,-0.965580,0.011475
1436,0.160305,3.038168,4.702290,-0.234864,-0.954838,0.007568
1437,-0.038168,2.908397,4.748092,-0.235597,-0.956547,0.001465
1438,0.496183,3.083969,6.122138,-0.237306,-0.957279,0.003174
1439,0.374046,3.694656,5.961832,-0.245606,-0.946293,0.004883
1440,0.656489,4.702290,5.312977,-0.245362,-0.949711,0.003174
1441,-0.954198,5.274809,3.343511,-0.232911,-0.966312,0.007568
1442,-1.473282,5.198474,4.488550,-0.231934,-0.967777,-0.000977
1443,-1.625954,5.137404,5.206107,-0.238038,-0.972416,0.008789
1444,-1.580153,4.916030,5.763358,-0.242677,-0.970218,0.011231
1445,-1.206107,5.282443,5.534351,-0.239991,-0.962406,-0.003174
1446,-1.129771,5.603053,4.839694,-0.238282,-0.951175,-0.000977
1447,-1.183206,5.335878,5.770992,-0.232911,-0.960697,0.001221
1448,-1.358779,4.954198,5.870229,-0.239747,-0.961429,0.020020
1449,-1.526717,4.969465,5.587786,-0.244630,-0.973392,0.028076
1450,-1.389313,5.007633,5.061069,-0.248536,-0.977054,0.032715
1451,-1.351145,4.290076,4.465649,-0.253419,-0.986576,0.037354
1452,-1.610687,4.015267,3.526718,-0.247804,-0.999027,0.033447
1453,-2.656489,2.366412,4.335878,-0.230958,-1.005619,0.028076
1454,-2.656489,0.824427,4.511450,-0.239991,-0.993412,0.031006
1455,-2.496183,-0.038168,3.595420,-0.249024,-0.981693,0.030518
1456,-2.442748,-0.419847,1.610687,-0.253175,-0.979496,0.025147
1457,-2.671756,-0.557252,-0.221374,-0.264649,-0.962650,0.014648
1458,-2.267176,-1.213740,1.076336,-0.259278,-0.976810,0.011475
1459,-2.969466,-3.908397,3.916030,-0.219727,-0.926761,-0.005371
1460,-2.122137,-4.961832,4.603054,-0.231446,-0.935062,-0.008301
1461,-1.801527,-5.083969,3.839695,-0.247071,-0.933109,-0.008545
1462,-1.335878,-5.793893,2.320611,-0.246827,-0.928959,0.005859
1463,-0.717557,-6.122138,0.603053,-0.265382,-0.943119,0.002197
1464,1.816794,-4.908397,-4.442748,-0.273194,-0.975101,0.020508
1465,1.526717,-4.732824,-5.351145,-0.260987,-0.967777,0.022461
1466,1.259542,-4.496183,-4.778626,-0.253663,-0.977543,0.024414
1467,0.603053,-4.648855,-3.511450,-0.248292,-0.988773,0.026367
1468,-0.129771,-4.839694,-0.755725,-0.243165,-0.987064,0.029541
1469,-2.473282,-4.290076,8.045801,-0.249269,-0.958500,0.030029
1470,-2.954198,-4.167938,9.061068,-0.260987,-0.950687,0.017578
1471,-2.358779,-4.183206,8.839695,-0.258302,-0.939212,0.016602
1472,-1.099237,-4.374046,7.938931,-0.250489,-0.923343,0.002441
1473,0.427481,-4.473282,6.274809,-0.231202,-0.908695,0.014648
1474,1.832061,-4.923664,5.114504,-0.215089,-0.907230,0.026367
1475,3.969466,-11.450381,2.725191,-0.152833,-0.949955,0.060059
1476,4.381679,-13.251908,1.603053,-0.150391,-0.956302,0.069092
1477,4.694656,-15.167939,1.076336,-0.155030,-0.969486,0.073242
1478,4.732824,-16.251909,0.893130,-0.175782,-0.979008,0.065674
1479,4.564886,-17.114504,0.755725,-0.214356,-0.975590,0.069824
1480,2.954198,-15.167939,-0.328244,-0.239747,-1.009525,0.049561
1481,1.351145,-13.923664,-0.541985,-0.256837,-0.999515,0.046387
1482,0.068702,-12.519083,1.305343,-0.267091,-1.006351,0.049805
1483,-1.442748,-10.816793,3.900763,-0.269288,-0.999271,0.040772
1484,-2.847328,-9.045801,7.198474,-0.290773,-0.993656,0.027344
1485,-5.702290,-4.030534,10.847328,-0.257081,-0.960941,0.039551
1486,-5.832061,-3.091603,11.053435,-0.241212,-0.957523,0.031983
1487,-5.893130,-2.618321,11.450381,-0.213868,-0.955814,0.034180
1488,-6.137404,-2.656489,12.862595,-0.197022,-0.948246,0.042481
1489,-6.427481,-2.725191,14.259541,-0.182374,-0.940677,0.055176
1490,-6.870229,-5.244275,15.687023,-0.191895,-0.947269,0.057862
1491,-6.328244,-5.557252,15.412212,-0.208253,-0.968998,0.047608
1492,-6.419848,-6.038168,14.946564,-0.241456,-0.977054,0.047852
1493,-6.244275,-6.022900,13.908397,-0.260743,-0.972416,0.054932
1494,-6.244275,-5.473282,12.305344,-0.278810,-0.968754,0.036133
1495,-4.984733,-4.022901,8.015267,-0.255372,-0.975834,0.017578
1496,-4.809160,-3.694656,7.580152,-0.254151,-0.969974,0.020996
1497,-4.793893,-3.770992,7.900763,-0.254151,-0.969730,0.012940
1498,-4.679389,-3.320611,8.511450,-0.249513,-0.958500,0.021973
1499,-4.198473,-2.984733,7.770992,-0.263673,-0.973392,0.007080
1500,-5.083969,-1.251908,5.938931,-0.294679,-0.960697,0.015381
1501,-4.648855,-0.549618,6.053435,-0.298585,-0.953861,0.023438
1502,-5.167939,0.335878,6.290076,-0.301271,-0.946293,0.013916
1503,-4.541984,1.358779,5.625954,-0.294679,-0.943119,0.027588
1504,-4.053435,2.091603,4.297710,-0.295411,-0.941410,0.025879
1505,-3.427481,2.862595,2.717557,-0.297609,-0.939701,0.023438
1506,-1.549618,3.709924,1.106870,-0.263917,-0.933353,0.036133
1507,-1.244275,3.839695,0.923664,-0.264161,-0.937748,0.048584
1508,-1.328244,3.335878,0.381679,-0.262208,-0.948246,0.044434
1509,-1.175572,3.358779,-0.755725,-0.256837,-0.959476,0.052246
1510,-1.664122,2.946565,-0.251908,-0.240968,-0.962406,0.050781
1511,-1.839695,2.862595,1.778626,-0.247560,-0.963383,0.031738
1512,-3.381679,2.419847,5.954198,-0.277101,-0.950199,0.024414
1513,-3.198473,2.610687,5.916030,-0.284181,-0.948978,0.014893
1514,-2.419847,2.977099,6.030534,-0.286866,-0.944095,0.004883
1515,-1.809160,4.213740,7.007634,-0.296876,-0.936283,0.010986
1516,-1.679389,4.908397,6.671756,-0.306153,-0.931644,0.010986
1517,-1.312977,6.099236,6.770992,-0.291993,-0.928226,0.010010
1518,0.251908,7.167939,4.366412,-0.269776,-0.955326,0.035401
1519,0.038168,6.809160,3.068702,-0.260499,-0.962406,0.040283
1520,-0.618321,6.419848,3.114504,-0.251954,-0.974857,0.045654
1521,-1.137404,5.717557,4.061069,-0.242921,-0.969730,0.053955
1522,-1.862595,5.099236,5.015267,-0.247560,-0.976322,0.052246
1523,-2.541985,4.305344,5.236642,-0.248292,-0.966556,0.042969
1524,-2.656489,2.290076,1.152672,-0.287355,-0.950931,0.023926
1525,-1.862595,2.496183,-0.236641,-0.288331,-0.942142,0.018799
1526,-0.824427,2.877863,-0.961832,-0.279542,-0.937259,0.018799
1527,-0.381679,2.725191,-0.763359,-0.266847,-0.928959,0.006836
1528,0.007634,2.725191,0.167939,-0.240479,-0.923099,0.012695
1529,-0.091603,2.374046,1.160305,-0.223390,-0.916751,0.021484
1530,0.572519,0.419847,4.076336,-0.218018,-0.962162,0.028076
1531,-0.282443,-0.625954,3.328244,-0.237061,-0.976566,0.040772
1532,-0.511450,-0.572519,3.083969,-0.241212,-0.974369,0.037842
1533,-1.129771,-0.610687,3.038168,-0.259767,-0.975590,0.036621
1534,-1.106870,-0.541985,3.274809,-0.266847,-0.980472,0.039307
1535,-1.687023,-0.022901,3.061069,-0.281495,-0.974857,0.039795
1536,-1.908397,1.320611,0.526718,-0.278565,-0.949955,0.029297
1537,-1.259542,1.679389,0.030534,-0.274903,-0.943607,0.025147
1538,-0.778626,2.045802,-0.488550,-0.272706,-0.948246,0.023682
1539,-0.389313,2.221374,-0.175573,-0.268312,-0.948002,0.026367
1540,-0.305343,2.618321,-0.297710,-0.279054,-0.955082,0.026611
1541,-0.267176,2.335878,-0.755725,-0.287110,-0.965336,0.020264
1542,-2.435115,3.694656,0.358779,-0.294435,-0.957523,0.003418
1543,-2.526718,4.503816,1.954198,-0.296144,-0.955570,0.017090
1544,-2.717557,4.908397,2.770992,-0.288575,-0.953617,0.007568
1545,-2.458015,5.557252,3.305344,-0.283692,-0.954105,0.009522
1546,-2.541985,5.625954,3.137405,-0.278810,-0.962162,0.022949
1547,-2.488550,5.702290,3.389313,-0.273927,-0.959232,0.026856
1548,-4.030534,5.076336,5.068702,-0.279298,-0.960697,0.028809
1549,-4.000000,5.190840,4.961832,-0.288087,-0.952152,0.022217
1550,-3.503817,5.664122,4.839694,-0.281739,-0.954593,0.033692
1551,-3.343511,5.793893,5.129771,-0.279542,-0.955326,0.015625
1552,-3.633588,5.595420,5.717557,-0.270997,-0.950443,0.015381
1553,-3.435114,5.114504,4.763359,-0.269532,-0.942875,0.023438
1554,-1.442748,2.503817,3.259542,-0.237550,-0.944339,0.009033
1555,-1.061069,1.832061,2.480916,-0.253907,-0.959476,0.005371
1556,-1.236641,1.549618,-0.206107,-0.276856,-0.965091,0.003906
1557,-1.053435,1.832061,-1.442748,-0.289064,-0.969730,0.003662
1558,-0.412214,1.923664,-0.106870,-0.267823,-0.975101,0.003662
1559,-1.251908,1.809160,-0.442748,-0.264649,-0.968265,0.010742
1560,-2.221374,1.549618,1.091603,-0.275880,-0.952396,0.021484
1561,-2.236641,1.534351,-0.870229,-0.280763,-0.957279,0.016602
1562,-1.374046,1.755725,-3.267176,-0.270265,-0.954838,0.029297
1563,-0.900763,1.778626,-5.450382,-0.266358,-0.958500,0.032959
1564,-0.488550,0.992366,-6.572519,-0.251954,-0.965091,0.040039
1565,-1.137404,-0.404580,-9.549619,-0.294435,-0.954349,0.017090
1566,-1.190840,-0.564886,-7.251908,-0.275636,-0.962162,0.021484
1567,-1.923664,-0.030534,-5.007633,-0.289064,-0.963138,0.018799
1568,-2.549618,0.030534,-3.847328,-0.288087,-0.959232,0.015137
1569,-3.358779,0.847328,-2.381679,-0.290528,-0.961673,0.016113
1570,-3.824427,1.801527,0.809160,-0.282716,-0.929203,0.002441
1571,-2.916031,2.519084,-0.297710,-0.279786,-0.944828,-0.005615
1572,-2.145038,3.068702,0.755725,-0.278565,-0.955326,0.011963
1573,-2.396947,3.534351,0.641221,-0.282716,-0.945560,0.011231
1574,-1.862595,4.396946,0.671756,-0.272462,-0.948246,0.010986
1575,-1.488550,4.221374,2.297710,-0.265138,-0.955570,0.015381
1576,-0.450382,3.549618,0.938931,-0.256593,-0.962406,0.018555
1577,-0.389313,3.335878,0.358779,-0.259034,-0.966312,0.017334
1578,-0.045802,3.145038,-0.595420,-0.267579,-0.966801,0.030518
1579,0.038168,1.931298,0.366412,-0.249024,-0.958988,0.025147
1580,0.282443,1.564885,-1.717557,-0.261964,-0.953129,0.029297
1581,0.770992,1.190840,-4.106870,-0.265870,-0.952396,0.011475
1582,0.664122,-0.832061,2.122137,-0.245362,-0.989262,0.001953
1583,-1.083969,-1.274809,2.496183,-0.244142,-0.938968,0.014404
1584,-0.923664,-1.465649,0.809160,-0.244630,-0.950931,0.005615
1585,-0.366412,-1.709924,-0.641221,-0.266603,-0.948978,0.008545
1586,0.809160,-1.534351,-2.404580,-0.276856,-0.963627,0.013184
1587,0.931298,-2.984733,5.152672,-0.279542,-0.954593,0.016113
1588,0.160305,-3.015267,4.312977,-0.289552,-0.975101,0.005371
1589,-1.015267,-1.030534,0.137405,-0.287843,-0.982914,0.008545
1590,-0.717557,-0.091603,-0.625954,-0.290528,-0.967533,0.016113
1591,-1.007634,-0.404580,0.946565,-0.277101,-0.936527,0.011231
1592,-0.954198,-0.267176,2.900763,-0.278565,-0.937259,0.025635
1593,-1.328244,-0.900763,6.496183,-0.257325,-0.963627,0.020996
1594,-0.969466,-1.557252,6.725190,-0.268312,-0.966312,0.017822
1595,-0.862595,-1.687023,5.206107,-0.287110,-0.960697,0.011475
1596,-0.549618,-1.465649,3.419847,-0.283692,-0.955326,0.027832
1597,0.038168,-0.984733,2.412214,-0.291017,-0.962406,0.020264
1598,0.725191,0.091603,2.320611,-0.284181,-0.968998,0.023438
1599,0.503817,0.458015,1.992366,-0.295411,-0.979008,0.018311
1600,0.503817,0.442748,1.190840,-0.295411,-0.970707,0.032471
1601,0.083969,1.015267,-0.229008,-0.288331,-0.973148,0.032227
1602,0.145038,1.351145,-1.167939,-0.277833,-0.966801,0.027100
1603,0.183206,1.633588,-1.282443,-0.278321,-0.959965,0.044434
1604,-0.702290,1.221374,2.679389,-0.245118,-0.958500,0.046631
1605,-1.534351,0.793893,3.091603,-0.238282,-0.965336,0.045166
1606,-2.374046,0.297710,3.503817,-0.225831,-0.967045,0.043213
1607,-3.183206,-0.175573,5.076336,-0.229493,-0.981693,0.050537
1608,-4.335878,-0.961832,5.564885,-0.229737,-0.981205,0.037842
1609,-5.007633,-1.984733,6.954198,-0.247315,-0.981693,0.044434
1610,-6.038168,-2.748092,2.954198,-0.282472,-0.961673,0.030762
1611,-5.618320,-2.938931,0.396947,-0.289552,-0.968509,0.018066
1612,-4.984733,-2.465649,-2.312977,-0.285646,-0.958011,0.033692
1613,-4.389313,-2.664122,-3.351145,-0.271485,-0.953373,0.036621
1614,-3.946565,-2.526718,-3.641221,-0.274171,-0.957035,0.037354
1615,-2.572519,-0.473282,-6.374046,-0.275392,-0.942630,0.027344
1616,-2.488550,0.122137,-6.236641,-0.271730,-0.942630,0.022949
1617,-2.526718,0.885496,-4.709924,-0.253175,-0.932132,0.031738
1618,-2.687023,1.435115,-2.740458,-0.255860,-0.944584,0.033203
1619,-3.511450,1.702290,-0.534351,-0.267823,-0.951664,0.024170
1620,-3.816794,5.068702,4.381679,-0.258302,-0.927005,0.010986
1621,-3.175573,5.748092,5.389312,-0.255128,-0.924808,0.013672
1622,-2.496183,6.244275,5.748092,-0.258790,-0.919437,0.002686
1623,-2.221374,6.671756,5.709924,-0.259278,-0.923587,-0.000244
1624,-1.900763,6.396946,5.229008,-0.252686,-0.926517,0.020264
1625,-1.748092,6.198473,5.267175,-0.233888,-0.925541,0.004639
1626,-2.175573,3.015267,7.145038,-0.216065,-0.949466,0.029297
1627,-2.236641,2.175573,6.320610,-0.213380,-0.954349,0.039063
1628,-2.427481,1.435115,5.564885,-0.224854,-0.957279,0.022461
1629,-2.229008,0.458015,4.587786,-0.231690,-0.962650,0.046387
1630,-2.366412,-0.496183,3.488550,-0.243897,-0.955814,0.037842
1631,-1.671756,-0.557252,1.839695,-0.254395,-0.955082,0.029541
1632,-0.603053,-0.923664,-1.000000,-0.270997,-0.963871,0.025147
1633,-0.534351,-0.412214,-1.206107,-0.279054,-0.964115,0.024170
1634,-0.282443,-0.320611,-0.977099,-0.270265,-0.960209,0.015869
1635,0.358779,-0.206107,-1.022901,-0.271241,-0.947025,0.011231
1636,0.580153,0.137405,-0.206107,-0.274415,-0.943119,0.020508
1637,-0.221374,0.961832,-1.534351,-0.277345,-0.947757,0.014893
1638,-0.236641,1.190840,-1.755725,-0.272218,-0.945804,0.027588
1639,-0.625954,1.923664,0.221374,-0.285890,-0.954105,0.017822
1640,-1.312977,1.236641,2.618321,-0.286134,-0.959720,0.019531
1641,-2.374046,1.198473,4.969465,-0.289796,-0.968265,0.014404
1642,-2.938931,1.931298,5.969466,-0.297609,-0.947025,0.018799
1643,-0.496183,3.389313,2.183206,-0.292482,-0.954105,0.018555
1644,-0.236641,3.625954,2.305344,-0.289796,-0.963138,0.033447
1645,-0.511450,3.450382,2.816794,-0.274659,-0.963138,0.010986
1646,-0.977099,3.122137,2.969466,-0.276368,-0.967777,0.026367
1647,-1.320611,3.236641,3.000000,-0.281007,-0.971439,0.014404
1648,-1.381679,3.122137,1.862595,-0.291505,-0.973148,0.020996
1649,0.213740,4.251908,-0.389313,-0.298829,-0.949222,0.005127
1650,0.389313,4.694656,-0.030534,-0.300294,-0.953861,-0.003174
1651,0.450382,4.847328,-0.053435,-0.301515,-0.951908,0.002441
1652,0.526718,5.358779,-0.045802,-0.298341,-0.950931,0.003174
1653,0.740458,5.633588,-0.358779,-0.295900,-0.948734,0.012940
1654,0.572519,5.603053,-0.687023,-0.294191,-0.947513,0.011475
1655,-0.404580,4.717557,0.396947,-0.272218,-0.966068,0.033692
1656,-0.793893,4.282442,0.717557,-0.266114,-0.966312,0.030029
1657,-0.938931,3.809160,1.358779,-0.262208,-0.976810,0.031983
1658,-1.229008,3.534351,1.694656,-0.267335,-0.971195,0.032715
1659,-1.297710,3.503817,1.648855,-0.270753,-0.970951,0.023193
1660,-1.549618,3.167939,1.893130,-0.269532,-0.965824,0.016602
1661,-2.297710,2.862595,2.755725,-0.268556,-0.956547,0.010742
1662,-2.099237,2.412214,3.335878,-0.277345,-0.950199,0.007080
1663,-2.251908,2.145038,3.351145,-0.288331,-0.950199,0.005859
1664,-2.137405,2.687023,2.549618,-0.291261,-0.942630,0.003662
1665,-1.725191,2.961832,1.244275,-0.302491,-0.947025,-0.010498
1666,-1.229008,3.465649,0.145038,-0.310304,-0.929935,-0.006104
1667,0.106870,4.541984,-0.793893,-0.261476,-0.940677,0.013672
1668,0.083969,4.389313,-0.488550,-0.255616,-0.948002,0.013428
1669,0.038168,4.038168,0.267176,-0.258546,-0.957523,0.022949
1670,-0.259542,3.648855,0.656489,-0.265870,-0.960941,0.039063
1671,-0.687023,3.557252,1.145038,-0.271730,-0.961673,0.037598
1672,-0.992366,3.503817,1.099237,-0.278565,-0.968509,0.021973
1673,-0.732824,4.641222,0.152672,-0.283692,-0.954105,0.011231
1674,-0.458015,4.809160,0.106870,-0.281007,-0.952396,0.021484
1675,-0.519084,4.885496,0.152672,-0.266114,-0.947269,0.012207
1676,-0.251908,4.641222,0.603053,-0.260987,-0.943363,0.012207
1677,0.053435,4.954198,0.725191,-0.267579,-0.938236,0.006592
1678,0.221374,4.618320,0.160305,-0.265382,-0.935062,0.010254
1679,1.442748,3.694656,-0.083969,-0.254395,-0.942142,0.015137
1680,1.099237,3.297710,-0.061069,-0.255128,-0.939701,0.014893
1681,0.870229,2.923664,-0.290076,-0.251954,-0.942386,0.030274
1682,1.045802,2.587786,-0.167939,-0.255372,-0.941654,0.020752
1683,1.160305,2.511450,-0.236641,-0.253175,-0.951664,0.013916
1684,0.969466,2.000000,0.183206,-0.253907,-0.945804,0.029053
1685,-0.641221,0.503817,1.580153,-0.265626,-0.963138,0.025879
1686,-0.496183,0.824427,0.832061,-0.274415,-0.954105,0.019775
1687,0.259542,1.122137,-0.312977,-0.271485,-0.947513,0.024170
1688,0.900763,1.511450,-0.328244,-0.271730,-0.947513,0.024170
1689,1.045802,1.893130,0.007634,-0.262696,-0.941654,0.015869
1690,1.320611,1.793893,0.816794,-0.263185,-0.940189,0.015381
1691,1.557252,2.450382,0.000000,-0.272706,-0.957523,0.021729
1692,1.229008,2.335878,-0.160305,-0.266847,-0.966556,0.025879
1693,0.458015,1.770992,0.305343,-0.259767,-0.970218,0.022949
1694,-0.007634,1.312977,2.190840,-0.263917,-0.978275,0.025147
1695,-0.877863,1.152672,2.419847,-0.274171,-0.969974,0.030274
1696,-1.083969,1.503817,1.862595,-0.279298,-0.968021,0.030762
1697,-0.832061,1.374046,1.473282,-0.265138,-0.959720,0.031250
1698,-1.129771,1.236641,1.809160,-0.260499,-0.964847,0.025879
1699,-1.305343,0.251908,2.412214,-0.268800,-0.957767,0.025147
1700,-1.022901,0.022901,1.709924,-0.278321,-0.952884,0.024170
1701,-0.633588,-0.396947,-1.267176,-0.284425,-0.937992,0.036133
1702,0.022901,-0.595420,-2.480916,-0.260743,-0.937748,0.033203
1703,-0.282443,-3.709924,-2.969466,-0.275880,-0.966068,0.024658
1704,-0.358779,-4.106870,-2.946565,-0.273194,-0.965091,0.022949
1705,-0.259542,-4.267176,-2.145038,-0.288819,-0.971683,0.025147
1706,-0.519084,-4.007634,-3.801527,-0.286378,-0.977054,0.014404
1707,-0.908397,-4.137405,-3.931298,-0.277589,-0.963138,0.032959
1708,-0.709924,-4.664122,1.183206,-0.263673,-0.959720,0.025635
1709,-1.099237,-4.755725,1.908397,-0.268556,-0.961429,0.030762
1710,-0.946565,-5.045801,2.458015,-0.264161,-0.964359,0.042725
1711,-0.923664,-5.038168,2.908397,-0.269532,-0.966068,0.041016
1712,-0.770992,-5.534351,2.664122,-0.283204,-0.965091,0.023193
1713,-0.793893,-3.916030,0.106870,-0.307618,-0.969730,0.018555
1714,-1.122137,-3.954198,3.358779,-0.304200,-0.967289,0.021484
1715,-2.374046,-2.503817,1.435115,-0.289552,-0.936283,0.017090
1716,-1.656489,-1.603053,2.282443,-0.294191,-0.945316,0.018066
1717,-1.022901,-1.015267,2.809160,-0.290284,-0.938236,0.025635
1718,-1.977099,0.496183,3.847328,-0.250733,-0.941410,0.023682
1719,-2.603053,-0.091603,6.114504,-0.242677,-0.943607,0.024170
1720,-3.038168,-0.167939,7.954198,-0.252931,-0.946048,0.008789
1721,-2.893130,-0.022901,7.755725,-0.264649,-0.942875,0.019287
1722,-2.442748,-0.519084,6.603053,-0.257325,-0.945316,0.022705
1723,-2.190840,-1.236641,6.244275,-0.258546,-0.951420,0.015381
1724,-3.534351,-4.106870,4.633588,-0.261476,-0.976566,0.020020
1725,-4.007634,-4.854962,5.847328,-0.279542,-0.987552,0.031494
1726,-4.221374,-6.480916,3.931298,-0.284181,-0.976322,0.031494
1727,-3.671756,-7.427481,1.694656,-0.278810,-0.979008,0.041748
1728,-3.679389,-8.877863,1.000000,-0.262208,-0.978519,0.046631
1729,-5.709924,-19.778626,-1.114504,-0.153809,-0.964603,0.078614
1730,-6.175572,-24.809159,0.175573,-0.137696,-0.968754,0.092774
1731,-5.969466,-30.748091,-1.610687,-0.153077,-0.976566,0.073731
1732,-6.473282,-36.519085,-4.984733,-0.149415,-0.984623,0.090821
1733,-6.992366,-42.595419,-8.618321,-0.178467,-1.014652,0.073731
1734,-5.847328,-60.022896,-36.458016,-0.327882,-0.969730,0.060547
1735,-4.862596,-61.557250,-42.198476,-0.347169,-0.988773,0.046631
1736,-3.282443,-62.572517,-46.503817,-0.388917,-0.997806,0.027100
1737,-2.076336,-62.656487,-50.946562,-0.404787,-0.993900,0.034424
1738,-1.893130,-61.809161,-54.229007,-0.395265,-1.005863,0.030029
1739,-1.893130,-56.923663,-53.190835,-0.308595,-0.975345,0.029297
1740,-1.305343,-55.671755,-48.732826,-0.299073,-0.987064,0.037354
1741,-1.480916,-54.022899,-44.465648,-0.290040,-0.978275,0.032715
1742,-1.664122,-52.832063,-40.458014,-0.273439,-0.975345,0.044434
1743,-2.091603,-51.198473,-35.396946,-0.257081,-0.979984,0.055664
1744,-6.351145,-47.129770,-13.557252,-0.178956,-0.991703,0.098389
1745,-7.167939,-47.564884,-5.427480,-0.159424,-0.972660,0.106202
1746,-7.778626,-46.694656,2.473282,-0.167969,-0.997074,0.087159
1747,-8.167939,-47.557251,6.152672,-0.191163,-1.023685,0.078858
1748,-8.152672,-46.839695,7.221374,-0.215821,-1.029789,0.073731
1749,-10.946565,-46.717554,6.000000,-0.153077,-0.967533,0.079346
1750,-11.229008,-47.152672,10.847328,-0.149170,-0.974369,0.081787
1751,-11.442748,-49.083969,16.282442,-0.180909,-0.975101,0.060791
1752,-11.793892,-49.847328,19.854962,-0.219483,-0.987797,0.045166
1753,-11.641221,-50.435114,21.419847,-0.260011,-0.968754,0.042969
1754,-6.061068,-55.412211,27.267175,-0.340333,-0.937015,0.022217
1755,-7.694656,-49.763358,20.938930,-0.309571,-0.975101,0.001465
1756,-7.221374,-50.022898,16.282442,-0.308839,-0.983646,0.010010
1757,-6.549618,-52.175572,11.664122,-0.307130,-0.977054,0.017578
1758,-6.786259,-53.961834,5.175572,-0.306642,-0.952152,0.007813
1759,-4.625954,-54.274810,-26.809160,-0.156006,-0.906498,0.037598
1760,-4.450382,-56.480914,-27.549617,-0.096192,-0.900150,0.044434
1761,-4.900764,-59.198472,-23.801527,-0.089844,-0.906986,0.041504
1762,-5.702290,-62.419842,-19.916031,-0.112305,-0.905521,0.028076
1763,-6.564885,-64.984735,-16.732824,-0.146241,-0.912601,0.036377
1764,-7.083969,-67.770994,-18.221374,-0.249513,-0.913089,0.006348
1765,-6.877863,-67.549621,-20.061070,-0.212647,-0.900394,0.010986
1766,-6.244275,-67.290074,-21.603053,-0.183106,-0.887454,0.013672
1767,-5.106870,-67.007639,-21.106871,-0.158448,-0.887699,0.021240
1768,-3.664122,-67.419847,-18.114503,-0.154542,-0.911869,0.026367
1769,-0.694656,-67.900761,-18.022902,-0.232911,-0.955082,0.013184
1770,0.038168,-67.198467,-22.374047,-0.238038,-0.960209,0.019775
1771,0.572519,-65.564884,-26.328245,-0.243653,-0.969242,0.017578
1772,0.419847,-63.160302,-31.358778,-0.239259,-0.965091,0.024658
1773,0.083969,-60.618318,-36.778625,-0.231690,-0.955082,0.029785
1774,2.450382,-50.633585,-37.847328,-0.146729,-0.910648,0.055176
1775,2.442748,-49.480916,-30.648855,-0.136475,-0.910404,0.052735
1776,2.931298,-49.183205,-20.580152,-0.113282,-0.921634,0.062256
1777,2.412214,-50.251907,-10.145039,-0.111329,-0.931644,0.077149
1778,1.900763,-52.618319,0.534351,-0.116211,-0.944339,0.077637
1779,-0.900763,-58.305342,2.725191,-0.138672,-0.977787,0.075928
1780,-2.106870,-59.236639,0.251908,-0.088868,-0.959476,0.091553
1781,-1.656489,-61.557250,2.664122,-0.051270,-0.963871,0.113526
1782,-1.320611,-63.526715,7.213740,-0.051270,-0.959476,0.105713
1783,-1.328244,-66.412217,11.068702,-0.074463,-0.975834,0.106690
1784,-3.854962,-71.305344,3.679389,-0.175294,-0.994388,0.106446
1785,-3.862595,-71.877857,-1.045802,-0.142335,-0.986820,0.097168
1786,-3.259542,-72.167935,-1.015267,-0.095703,-0.952152,0.105225
1787,-4.511450,-72.900760,3.854962,-0.047608,-0.926761,0.123780
1788,-4.641222,-75.389312,15.557252,-0.041016,-0.924564,0.104737
1789,-3.259542,-79.450378,47.183202,-0.249757,-0.955814,0.080567
1790,-3.190840,-76.488549,45.152673,-0.297364,-0.979740,0.093018
1791,-3.343511,-72.267171,40.045802,-0.303468,-0.995365,0.076905
1792,-7.145038,-68.877860,38.603054,-0.274171,-1.024174,0.071289
1793,-6.916030,-64.045795,33.015266,-0.272218,-0.978519,0.059815
1794,1.603053,-44.839693,27.587786,-0.217286,-0.974369,0.092530
1795,2.007634,-43.519083,29.015265,-0.135254,-0.958744,0.107178
1796,0.167939,-43.755725,31.893127,-0.049805,-0.964115,0.123291
1797,-1.946565,-45.671757,35.870227,-0.012940,-0.969974,0.133057
1798,-3.229008,-49.839695,39.816796,0.007568,-0.995609,0.136963
1799,-7.801527,-59.167934,24.801527,-0.180665,-1.013432,0.127930
1800,-8.458015,-59.053433,17.106871,-0.234376,-0.989506,0.128907
1801,-8.900763,-58.603050,9.435115,-0.279054,-0.994877,0.132569
1802,-8.748092,-57.122139,1.557252,-0.300538,-1.016361,0.125000
1803,-8.656489,-54.519085,-5.541984,-0.329103,-1.023930,0.126465
1804,-8.946564,-45.389311,-30.450383,-0.287599,-0.987064,0.132569
1805,-9.335877,-42.770993,-33.572517,-0.255128,-0.984623,0.115235
1806,-9.206107,-41.160304,-34.122139,-0.252198,-0.989017,0.112061
1807,-8.954199,-40.030533,-33.671757,-0.237550,-0.984867,0.117920
1808,-9.389312,-39.083968,-33.458016,-0.223145,-0.972416,0.111573
1809,-11.305344,-36.618321,-12.633587,-0.150879,-0.935550,0.117676
1810,-11.679389,-36.351148,-0.992366,-0.148194,-0.944095,0.104981
1811,-11.938932,-36.732825,7.587786,-0.150147,-0.947757,0.110108
1812,-12.412213,-37.175572,11.931297,-0.150879,-0.955082,0.107666
1813,-13.061068,-37.564882,11.931297,-0.148682,-0.958744,0.108643
1814,-11.916031,-42.412213,6.236641,-0.155518,-0.961673,0.134034
1815,-11.503816,-43.541984,4.572519,-0.170655,-0.954349,0.144532
1816,-10.824427,-45.755724,4.671756,-0.183106,-0.978275,0.154786
1817,-10.572519,-46.137405,5.045801,-0.188477,-1.012943,0.146973
1818,-10.633588,-45.183204,1.725191,-0.199952,-1.043705,0.149170
1819,-18.145038,-51.633586,14.160305,-0.077881,-1.058354,0.191407
1820,-21.755725,-54.656488,19.633587,-0.011475,-1.012943,0.217774
1821,-25.755726,-58.358782,23.923663,0.071778,-0.976566,0.269532
1822,-25.755726,-67.206110,32.068701,0.070313,-1.024418,0.215333
1823,-26.732824,-75.427479,42.312977,0.039795,-1.064945,0.212647
1824,-43.152670,-93.305342,10.389313,-0.214356,-0.986820,0.173340
1825,-44.297711,-92.496183,-1.412214,-0.259522,-1.001224,0.124756
1826,-44.778624,-89.297708,-22.022901,-0.307130,-0.948002,0.083008
1827,-43.076336,-86.137407,-35.824427,-0.304444,-0.909916,0.089600
1828,-37.297709,-84.473279,-40.541984,-0.330323,-0.894046,0.062256
1829,-22.595418,-57.671754,-84.145034,-0.444093,-0.871829,-0.021484
1830,-20.290077,-50.206108,-96.030533,-0.367433,-0.858157,0.001953
1831,-13.671756,-45.137404,-94.641218,-0.312501,-0.835452,-0.002197
1832,-6.129771,-39.053437,-83.671750,-0.229737,-0.852786,-0.009033
1833,-2.251908,-33.633586,-72.541984,-0.182618,-0.830081,0.019531
1834,6.328244,-22.114503,-58.114500,-0.122315,-0.900394,0.091309
1835,9.854961,-24.045800,-52.702289,-0.118164,-0.938236,0.072754
1836,10.343511,-25.183206,-46.839695,-0.065430,-0.976078,0.087647
1837,10.793893,-26.015267,-42.442747,-0.039551,-0.980228,0.106934
1838,10.427481,-29.167937,-38.916030,-0.019531,-0.978275,0.122315
1839,13.908397,-44.137406,-57.572518,-0.031738,-1.031254,0.124268
1840,15.732823,-47.648854,-66.061063,-0.032959,-1.048100,0.140137
1841,15.984733,-51.297708,-75.648859,-0.043701,-1.045902,0.144776
1842,15.404580,-54.534351,-83.496186,-0.045654,-1.043949,0.148194
1843,16.190840,-56.526717,-87.305342,-0.049561,-1.032963,0.145264
1844,16.519082,-55.641220,-84.541984,-0.108399,-0.994388,0.148438
1845,19.839695,-54.183204,-64.412215,-0.087403,-0.975101,0.132081
1846,15.587786,-56.015265,-31.541984,-0.061768,-0.907718,0.150147
1847,9.694656,-58.412214,3.610687,-0.080078,-0.858157,0.161378
1848,4.381679,-58.297706,38.450382,-0.092286,-0.853275,0.139893
1849,-1.465649,-57.236640,96.587781,0.021240,-0.946293,0.145997
1850,-0.465649,-58.740460,92.015263,0.047608,-0.981937,0.143799
1851,0.396947,-57.809163,84.442748,0.050781,-1.012943,0.124512
1852,0.854962,-58.244274,76.068704,0.025147,-1.027348,0.119141
1853,-0.282443,-57.992363,67.778623,-0.011963,-1.023197,0.118409
1854,1.671756,-59.083970,34.549617,-0.091797,-1.036625,0.133057
1855,2.030534,-58.809164,25.534351,-0.113770,-1.071781,0.125489
1856,1.580153,-57.167938,18.106871,-0.137696,-1.098149,0.115967
1857,-0.244275,-54.160306,11.282443,-0.147217,-1.102543,0.119141
1858,-2.870229,-50.068701,6.351145,-0.162598,-1.094486,0.114747
1859,-9.442748,-36.564885,7.435114,-0.135254,-1.010502,0.120606
1860,-8.122137,-34.389312,11.015267,-0.146729,-1.005375,0.130616
1861,-6.977099,-31.480915,10.488549,-0.170899,-1.007084,0.136231
1862,-6.648854,-27.061069,3.267176,-0.151856,-1.001713,0.133301
1863,-8.076336,-27.671755,2.351145,-0.042236,-1.039555,0.147950
1864,-23.274809,-49.381680,-2.305344,0.141358,-1.087406,0.174561
1865,-22.381679,-56.320609,-8.076336,0.101563,-1.097172,0.196778
1866,-22.961832,-60.458013,-19.328245,0.031494,-1.097416,0.194093
1867,-21.419847,-63.740459,-34.839695,-0.032715,-1.094731,0.191407
1868,-18.961831,-65.213737,-51.778625,-0.063233,-1.096684,0.173096
1869,-11.816793,-64.587785,-91.709919,-0.080078,-1.094731,0.148682
1870,-11.748092,-63.282440,-97.335878,-0.085694,-1.055668,0.159180
1871,-11.793892,-61.213739,-101.664121,-0.078369,-1.040043,0.152588
1872,-10.343511,-57.862596,-101.114502,-0.095948,-1.036381,0.134522
1873,-10.251908,-55.366411,-95.610688,-0.080078,-0.991459,0.134278
1874,-19.297711,-52.519083,-31.236640,0.015381,-0.951420,0.129883
1875,-22.557251,-53.282442,-13.114504,0.014404,-0.970463,0.135010
1876,-23.022901,-53.732825,1.099237,-0.008301,-0.993900,0.125245
1877,-25.053434,-54.480915,8.290076,-0.040283,-1.003910,0.110108
1878,-27.648855,-52.076336,9.427480,-0.050781,-1.002689,0.109131
1879,-28.725190,-53.641218,9.282443,0.017090,-0.970707,0.116456
1880,-28.587786,-55.435116,9.190840,-0.001709,-0.983890,0.102051
1881,-28.022902,-56.526717,7.175572,-0.027344,-0.982426,0.105225
1882,-27.335878,-56.122137,3.137405,-0.072022,-0.987308,0.087647
1883,-26.480916,-55.038166,-2.206107,-0.084229,-0.970463,0.078369
1884,-21.229008,-49.267172,-6.427481,-0.082520,-0.893314,0.037110
1885,-18.763359,-46.793892,-3.396947,-0.081543,-0.878910,0.039795
1886,-15.954198,-43.954196,-0.244275,-0.064942,-0.882328,0.030762
1887,-13.335877,-40.877859,2.862595,-0.054444,-0.864993,0.016846
1888,-10.519084,-37.496181,5.442748,-0.042725,-0.855960,0.006836
1889,-1.328244,-32.847329,18.419847,0.020020,-0.910892,0.063965
1890,0.885496,-33.946562,22.068703,0.036865,-0.946781,0.070069
1891,1.526717,-34.977101,21.709922,0.032471,-0.986088,0.085450
1892,2.419847,-36.106869,17.702289,0.009277,-1.021244,0.094727
1893,3.007634,-37.786259,14.900763,-0.006592,-1.034184,0.099121
1894,-0.580153,-39.984733,7.908397,0.008057,-1.046635,0.124268
1895,-1.954198,-41.030531,9.129771,0.000732,-1.049809,0.118653
1896,-3.312977,-42.160305,11.335877,0.008057,-1.050297,0.115479
1897,-6.557252,-41.160304,9.595419,0.015625,-1.030521,0.123291
1898,-9.580152,-41.267173,6.763358,0.016846,-1.024418,0.119385
1899,-9.122137,-39.847327,-3.167939,-0.005859,-1.017338,0.085450
1900,-9.091603,-39.358780,-6.389313,-0.000977,-0.996830,0.074463
1901,-8.740458,-38.770991,-11.725191,-0.001221,-0.968998,0.070069
1902,-7.152672,-37.778626,-13.320610,0.018311,-0.971683,0.056153
1903,-6.374046,-37.465647,-14.625955,0.011231,-0.953861,0.055176
1904,-5.717557,-31.480915,-10.763359,0.010254,-0.897953,0.029785
1905,-4.587786,-29.870230,-4.488550,0.052246,-0.903568,0.040283
1906,-3.496183,-30.267174,6.587786,0.097657,-0.881595,0.043945
